aX,aY,aZ,gX,gY,gZ
1.89,0.36,0.396,54.81,-64.819,-55.176
1.812,0.17,0.399,49.438,-11.963,-40.588
1.519,0.121,0.348,90.393,51.575,-6.775
1.22,0.308,0.182,146.851,107.422,12.817
1.045,0.557,-0.043,169.495,139.709,-0.732
1.057,0.639,-0.208,160.156,133.24,-36.316
1.186,0.516,-0.16,117.859,104.309,-72.083
1.481,0.338,0.049,69.702,73.181,-83.618
2.061,0.252,0.324,44.678,47.852,-77.454
2.611,0.22,0.64,-0.671,43.03,-85.144
2.707,0.155,0.893,-11.108,92.224,-92.712
2.435,0.167,0.658,15.442,175.232,-85.144
2.138,0.306,0.035,8.789,205.505,-71.35
2.028,0.494,-0.367,34.058,177.979,-53.406
2.154,0.736,-0.464,43.945,122.864,-47.18
2.476,0.926,-0.312,33.936,63.904,-64.819
2.811,0.885,-0.034,17.883,23.865,-100.586
2.903,0.628,0.227,18.677,18.555,-125.244
2.943,0.315,0.37,47.119,43.457,-123.291
3.114,0.019,0.373,52.307,79.651,-106.506
3.203,-0.27,0.293,66.04,90.942,-84.9
3.096,-0.513,0.209,61.157,82.703,-58.411
2.905,-0.646,0.18,60.364,57.312,-22.217
2.69,-0.646,0.207,58.838,16.602,7.751
2.373,-0.558,0.307,42.419,-22.705,28.625
1.995,-0.404,0.443,24.841,-45.288,50.232
1.661,-0.179,0.542,10.498,-51.453,67.139
1.444,0.073,0.573,-3.418,-47.546,70.129
1.351,0.262,0.539,-27.283,-39.307,57.983
1.225,0.34,0.446,-46.509,-25.757,49.927
1.008,0.426,0.284,-41.687,-11.108,58.533
0.829,0.641,0.078,-22.278,-2.563,68.909
0.748,0.878,-0.102,-10.864,-1.953,61.157
0.729,0.966,-0.197,-2.197,-6.287,37.903
0.759,0.847,-0.196,5.981,-14.099,13.794
0.842,0.594,-0.107,14.954,-21.423,3.235
0.938,0.352,0.039,23.437,-25.94,8.179
1.007,0.21,0.205,27.039,-25.818,20.63
1.078,0.171,0.351,25.757,-20.752,30.151
1.177,0.171,0.434,15.381,-11.902,29.175
1.287,0.12,0.437,-2.563,-4.272,21.606
1.398,0.007,0.406,-12.329,-2.014,19.348
1.511,-0.099,0.386,-13.184,0.61,28.625
1.617,-0.14,0.372,-8.667,7.385,46.692
1.733,-0.097,0.357,-2.625,15.503,64.941
1.85,0.009,0.335,4.761,23.56,75.623
1.939,0.107,0.285,7.874,31.433,77.942
1.982,0.146,0.211,12.024,32.959,76.233
1.957,0.157,0.143,15.442,30.701,78.491
1.901,0.19,0.099,18.555,26.611,85.51
1.849,0.252,0.082,18.738,16.846,88.135
1.788,0.3,0.117,10.437,2.014,82.214
1.742,0.301,0.224,1.343,-10.925,71.899
1.729,0.27,0.369,-4.944,-17.029,60.242
1.731,0.236,0.503,-13.123,-13.184,49.133
1.765,0.223,0.599,-21.545,-1.709,39.001
1.838,0.237,0.636,-26.367,12.39,24.536
1.906,0.251,0.601,-28.809,23.926,2.869
1.925,0.226,0.502,-26.062,29.175,-20.386
1.865,0.163,0.381,-20.508,29.907,-36.499
1.745,0.113,0.258,-9.216,36.255,-37.476
1.63,0.113,0.153,1.16,42.419,-30.396
1.515,0.116,0.103,-5.066,30.151,-29.48
1.382,0.03,0.156,-38.391,-4.578,-37.903
1.245,-0.138,0.324,-77.881,-52.246,-45.776
1.192,-0.225,0.559,-108.948,-87.585,-39.001
1.472,-0.156,0.808,-140.625,-103.882,-23.254
1.9,-0.037,1.022,-162.292,-95.337,-22.4
1.983,0.057,1.025,-155.945,-59.448,-29.724
1.764,0.157,0.717,-140.259,-20.02,-23.499
1.525,0.255,0.295,-128.174,-4.639,-11.475
1.315,0.259,-0.015,-131.531,-20.691,0.305
1.078,0.151,-0.09,-140.198,-55.908,16.174
0.832,0.037,0.064,-139.709,-89.172,34.79
0.613,0.006,0.278,-121.277,-106.873,45.105
0.473,0.047,0.401,-113.464,-105.774,41.626
0.396,0.102,0.421,-117.371,-90.393,28.992
0.359,0.16,0.354,-123.413,-64.88,14.954
0.425,0.226,0.205,-124.939,-46.631,-4.272
0.562,0.261,0.017,-114.441,-50.537,-34.302
0.671,0.208,-0.15,-83.008,-77.393,-68.542
0.718,0.046,-0.214,-44.678,-117.371,-89.172
0.709,-0.182,-0.122,7.874,-152.771,-85.754
0.661,-0.374,0.065,61.707,-167.664,-58.716
0.584,-0.457,0.251,99.854,-152.344,-16.113
0.479,-0.408,0.339,130.432,-104.858,30.09
0.376,-0.241,0.27,153.748,-40.894,62.561
0.324,-0.014,0.033,161.316,15.015,65.735
0.333,0.156,-0.346,152.771,38.147,36.804
0.348,0.135,-0.63,71.655,27.344,-7.629
0.371,-0.053,-0.751,1.038,0.366,-36.499
0.462,-0.228,-0.841,-62.317,-43.213,-41.687
0.581,-0.32,-0.841,-161.743,-91.736,-33.264
0.672,-0.391,-0.675,-303.955,-124.023,-19.47
0.664,-0.464,-0.343,-454.712,-124.268,0.793
0.577,-0.47,0.026,-505.859,-88.623,32.471
0.474,-0.355,0.232,-464.6,-29.297,65.186
0.369,-0.153,0.188,-394.104,33.691,88.745
0.294,0.041,0.005,-354.187,80.688,94.421
0.23,0.169,-0.15,-295.654,101.929,81.055
0.219,0.219,-0.225,-189.819,102.173,56.519
0.316,0.188,-0.255,-49.744,89.417,26.733
0.439,0.094,-0.253,74.341,70.068,-1.221
0.527,-0.016,-0.22,181.763,47.485,-16.052
0.615,-0.11,-0.149,248.779,28.381,-15.564
0.714,-0.178,-0.042,274.475,19.47,-5.676
0.784,-0.226,0.049,244.324,24.475,10.803
0.803,-0.257,0.105,187.561,38.208,32.959
0.763,-0.25,0.099,148.682,49.988,54.993
0.666,-0.187,0.03,115.356,55.603,72.266
0.547,-0.088,-0.042,88.989,52.734,79.956
0.455,0.005,-0.076,68.359,43.091,74.28
0.426,0.048,-0.063,41.626,31.433,58.167
0.453,0,0.024,-3.235,26.062,42.908
0.519,-0.088,0.111,-20.386,25.818,36.804
0.592,-0.136,0.14,-32.41,25.269,37.048
0.626,-0.144,0.161,-30.457,22.705,39.368
0.643,-0.126,0.18,-8.545,18.25,39.246
0.67,-0.106,0.184,22.278,12.573,33.752
0.682,-0.104,0.147,36.926,6.47,25.574
1.762,-0.261,0.697,119.507,113.892,-7.019
1.699,-0.318,0.413,109.192,114.441,7.874
1.622,-0.263,0.709,-32.227,109.436,26.367
1.529,-0.248,0.748,473.511,124.756,43.457
1.597,0.061,0.073,473.45,108.643,72.083
1.969,0.587,0.024,252.319,98.022,50.171
2.38,0.841,0.081,127.38,56.396,-29.419
2.655,0.692,0.27,19.958,10.01,-105.835
2.835,0.322,0.676,2.014,13.55,-139.343
2.924,0.032,0.816,-15.137,42.175,-142.822
2.926,-0.161,0.769,-35.706,66.284,-133.118
2.883,-0.329,0.719,-29.785,76.66,-113.708
2.82,-0.436,0.714,-13.123,85.815,-83.801
2.779,-0.434,0.718,-4.639,96.863,-55.542
2.716,-0.423,0.736,18.494,104.614,-40.833
2.601,-0.494,0.542,158.142,98.877,-38.025
2.449,-0.554,0.29,155.762,58.533,-34.973
2.356,-0.566,0.258,110.046,19.775,-36.194
2.302,-0.625,0.314,69.763,-15.259,-38.574
2.167,-0.714,0.403,59.814,-37.781,-25.513
2.002,-0.705,0.5,53.467,-43.823,5.31
1.847,-0.519,0.56,49.744,-38.086,32.959
1.672,-0.26,0.54,33.142,-30.273,42.542
1.47,-0.07,0.483,16.418,-29.968,38.757
1.274,0.038,0.438,10.986,-41.321,32.959
1.115,0.12,0.446,8.423,-58.838,27.344
0.991,0.206,0.501,-1.282,-72.205,20.752
0.889,0.294,0.561,-19.043,-71.472,15.442
0.822,0.388,0.575,-28.992,-56.396,11.963
0.814,0.471,0.512,-32.043,-30.151,9.46
0.86,0.508,0.371,-31.067,-3.357,6.775
0.924,0.474,0.186,-26.917,11.108,4.639
0.964,0.384,0.035,-19.104,5.127,5.92
0.974,0.296,0.004,-8.789,-16.479,11.047
0.973,0.244,0.116,-1.16,-39.978,15.808
0.976,0.217,0.311,-1.648,-50.781,16.235
0.995,0.182,0.484,-12.146,-45.959,11.841
1.035,0.119,0.576,-27.527,-34.363,5.066
1.118,0.021,0.595,-40.405,-22.705,0.732
1.218,-0.097,0.567,-41.382,-14.282,2.441
1.299,-0.186,0.525,-30.518,-8.545,13.489
1.394,-0.196,0.488,-12.085,-2.197,31.311
1.5,-0.132,0.449,0.61,6.165,45.776
1.574,-0.064,0.402,6.775,12.146,51.941
1.633,-0.035,0.362,13.977,11.475,52.246
1.717,-0.038,0.354,22.156,9.155,51.331
1.799,-0.052,0.375,26.489,11.353,52.673
1.814,-0.044,0.401,34.302,21.118,59.265
1.798,0.014,0.407,41.626,36.072,65.857
1.815,0.099,0.396,40.833,49.866,64.148
1.874,0.156,0.378,34.973,57.312,52.917
1.916,0.15,0.369,21.423,55.725,35.706
1.896,0.102,0.382,8.484,46.265,20.935
1.86,0.066,0.422,-3.723,35.828,11.597
1.843,0.083,0.491,-10.315,28.809,5.371
1.859,0.126,0.545,-13.367,31.982,-1.709
1.896,0.116,0.536,-27.588,40.771,-7.507
1.936,0.09,0.497,-33.63,41.504,-3.723
1.96,0.088,0.475,-35.4,43.457,3.174
1.926,0.077,0.443,-30.212,41.138,9.155
1.836,0.091,0.451,-33.386,31.921,16.785
1.738,0.146,0.521,-34.119,29.175,21.912
1.646,0.195,0.566,-35.4,31.189,18.982
1.522,0.205,0.542,-31.128,30.945,9.277
1.4,0.178,0.458,-32.471,24.17,0.244
1.322,0.125,0.377,-45.898,10.803,-2.014
1.293,0.067,0.332,-54.504,-7.812,0.305
1.315,0.033,0.301,-65.857,-33.142,7.69
1.35,0.013,0.292,-89.905,-66.711,17.578
1.339,-0.014,0.343,-128.235,-102.417,24.536
1.257,-0.028,0.452,-170.349,-127.93,26.978
1.146,-0.009,0.583,-196.838,-138.489,23.071
1.065,0.017,0.674,-194.397,-137.329,10.864
1.023,0.005,0.697,-206.604,-126.404,-5.249
1,-0.082,0.721,-239.624,-109.924,-20.508
0.963,-0.217,0.749,-266.846,-90.515,-26.428
0.893,-0.325,0.751,-279.846,-67.627,-19.531
0.802,-0.369,0.739,-259.033,-45.105,-7.141
0.738,-0.349,0.683,-205.383,-28.625,2.502
0.731,-0.282,0.578,-135.498,-22.705,4.333
0.734,-0.208,0.454,-56.458,-29.663,-3.601
0.806,-0.176,0.393,17.395,-45.105,-17.456
0.822,-0.186,0.357,86.67,-56.641,-35.706
0.755,-0.219,0.24,154.663,-77.759,-50.049
0.714,-0.287,0.148,174.072,-101.44,-56.396
0.645,-0.363,0.156,180.176,-116.089,-48.34
0.564,-0.39,0.176,190.308,-119.812,-34.729
0.455,-0.384,0.14,163.452,-111.572,-27.466
0.364,-0.392,0.069,115.356,-102.295,-24.353
0.31,-0.408,-0.008,60.913,-94.666,-22.461
0.258,-0.416,-0.087,4.028,-85.754,-21.301
0.226,-0.4,-0.189,-54.565,-76.843,-20.264
0.236,-0.363,-0.293,-116.516,-75.012,-22.095
0.301,-0.319,-0.356,-177.856,-83.862,-27.161
0.386,-0.282,-0.354,-237.305,-95.52,-34.729
0.428,-0.259,-0.314,-267.212,-102.722,-42.175
0.427,-0.244,-0.266,-258.118,-103.76,-45.105
0.405,-0.216,-0.229,-213.867,-96.252,-40.71
0.358,-0.175,-0.217,-162.415,-79.895,-29.175
0.274,-0.132,-0.227,-126.282,-58.533,-16.602
0.153,-0.098,-0.242,-106.201,-35.339,-8.179
0.007,-0.079,-0.198,-71.96,-9.949,-1.77
-0.091,-0.048,-0.097,53.589,20.081,6.592
-0.053,0.02,-0.06,195.984,58.533,5.798
0.126,0.093,-0.14,257.08,95.642,-7.202
0.338,0.104,-0.285,240.295,106.201,-29.907
0.449,0.039,-0.488,173.767,86.304,-49.011
0.471,-0.07,-0.617,29.907,53.894,-47.668
0.432,-0.135,-0.573,-46.936,15.32,-27.344
0.3,-0.116,-0.444,-84.961,-11.902,-6.287
0.142,-0.093,-0.229,-127.014,-10.01,8.728
0.099,-0.076,0.083,-66.589,20.081,21.484
0.042,0.018,0.16,57.129,64.087,18.921
-0.053,0.094,-0.139,-17.517,117.126,0.305
0.026,-0.011,-0.365,-241.638,139.221,-11.841
0.144,-0.144,-0.189,-208.557,108.276,-8.545
0.323,-0.02,-0.072,66.589,65.247,-10.559
0.638,0.164,-0.262,24.17,40.466,-31.738
0.83,0.078,-0.402,-208.374,15.747,-37.537
0.817,-0.082,-0.32,-371.582,-17.7,-18.066
2.739,-0.193,1.305,258.789,-101.685,32.593
2.848,-0.043,1.276,171.082,12.451,92.285
2.602,0.25,1.116,83.069,84.412,120.422
2.369,0.56,0.939,75.867,131.531,118.103
2.406,0.771,0.797,21.729,152.71,84.412
2.767,0.818,0.828,-25.452,159.485,22.522
3.331,0.697,0.886,-25.513,180.115,-63.171
3.71,0.407,0.718,-9.888,222.229,-152.039
3.731,-0.035,0.475,-42.542,270.691,-199.89
3.56,-0.424,0.167,161.743,282.715,-197.51
3.312,-0.662,-0.311,165.894,263.733,-176.331
3.08,-0.901,-0.478,56.335,210.999,-142.09
2.779,-1.104,-0.458,119.324,109.131,-99.854
2.286,-1.226,-0.426,103.882,-7.935,-41.748
1.759,-1.262,-0.204,78.064,-120.483,33.569
1.342,-1.122,0.125,91.187,-221.863,112.183
1.047,-0.76,0.438,107.971,-290.039,186.279
0.861,-0.259,0.74,26.917,-305.725,238.342
0.759,0.331,1.123,-15.564,-270.447,261.475
0.736,1.044,1.307,3.906,-176.086,243.164
0.791,1.548,1.199,-87.341,-35.034,167.908
0.941,1.547,0.897,-92.529,97.778,86.609
1.156,1.294,0.439,2.686,191.467,36.377
1.311,1.062,-0.076,84.9,237.915,0.854
1.309,0.833,-0.488,92.102,227.234,-30.64
1.172,0.584,-0.71,97.656,159.119,-51.392
0.993,0.338,-0.756,76.355,51.453,-65.063
0.955,0.1,-0.585,57.617,-63.293,-69.031
1.104,-0.079,-0.255,25.696,-152.771,-60.181
1.237,-0.189,0.169,-13.489,-192.749,-36.194
1.291,-0.25,0.64,-14.343,-186.096,-4.028
1.349,-0.262,1.073,41.443,-135.437,26.672
1.421,-0.193,1.236,6.592,-31.982,49.622
1.495,-0.096,1.038,6.897,54.565,57.373
1.562,-0.072,0.753,25.696,101.99,56.885
1.619,-0.082,0.544,34.607,123.413,57.922
1.668,-0.048,0.417,33.63,126.343,60.242
1.686,0.035,0.397,29.602,120.85,58.411
1.678,0.124,0.429,24.902,114.563,48.035
1.68,0.172,0.467,20.752,103.821,29.907
1.713,0.148,0.501,8.606,87.341,9.827
1.745,0.068,0.542,-19.47,66.345,-4.333
1.75,0.01,0.556,-44.434,42.603,-7.263
1.747,0.046,0.517,-62.683,13.367,-1.343
1.756,0.178,0.469,-69.702,-21.057,1.709
1.78,0.332,0.444,-74.28,-51.941,-5.127
1.813,0.415,0.441,-77.82,-73.975,-16.357
1.832,0.405,0.465,-76.843,-85.571,-23.56
1.82,0.334,0.514,-63.965,-84.534,-24.17
1.786,0.243,0.572,-45.105,-70.007,-15.442
1.735,0.176,0.618,-12.817,-46.082,0.854
1.67,0.187,0.589,39.612,-22.4,16.968
1.585,0.24,0.497,56.946,1.221,26.978
1.482,0.277,0.399,76.416,11.169,30.457
1.406,0.316,0.327,79.956,3.296,26.062
1.367,0.361,0.281,74.463,-22.217,15.442
1.345,0.383,0.272,48.889,-55.42,1.953
1.323,0.359,0.316,25.94,-84.045,-10.62
1.271,0.306,0.36,14.282,-100.037,-20.935
1.21,0.253,0.343,9.216,-100.342,-25.574
1.162,0.206,0.275,-7.263,-93.079,-25.146
1.13,0.155,0.214,-24.048,-86.548,-21.545
1.112,0.094,0.166,-28.809,-89.478,-14.832
1.104,0.037,0.121,-40.405,-102.356,-5.371
1.106,0.012,0.11,-79.285,-118.591,6.592
1.1,0.009,0.166,-133.911,-128.601,17.395
1.067,0.002,0.258,-174.316,-128.174,24.719
1.01,-0.006,0.326,-190.918,-119.141,27.893
0.946,-0.007,0.349,-189.819,-107.544,28.748
0.884,-0.009,0.337,-180.847,-100.952,25.269
0.811,-0.015,0.341,-171.021,-99.121,17.029
0.748,-0.043,0.388,-147.766,-95.703,3.845
0.722,-0.113,0.444,-97.168,-89.783,-9.827
0.715,-0.198,0.442,-21.301,-85.693,-18.127
0.697,-0.251,0.368,58.35,-86.365,-20.63
0.672,-0.267,0.271,128.296,-89.355,-18.738
0.637,-0.275,0.194,171.875,-90.454,-12.756
0.589,-0.289,0.136,196.289,-87.891,-4.333
0.545,-0.307,0.049,204.224,-82.764,4.211
0.505,-0.314,-0.079,188.293,-78.918,11.475
0.477,-0.316,-0.202,145.02,-78.369,16.846
0.47,-0.34,-0.269,79.346,-78.979,22.034
0.469,-0.371,-0.248,5.798,-79.712,32.837
0.479,-0.336,-0.187,-50.842,-75.5,48.218
0.546,-0.232,-0.163,-103.516,-70.923,54.993
0.64,-0.128,-0.182,-150.94,-71.106,51.392
0.697,-0.083,-0.228,-186.035,-73.547,42.603
0.672,-0.101,-0.298,-214.355,-76.538,36.316
0.587,-0.146,-0.357,-236.877,-75.317,39.063
0.516,-0.187,-0.38,-238.831,-75.623,46.57
0.46,-0.205,-0.37,-229.98,-78.064,53.894
0.402,-0.194,-0.326,-216.248,-77.209,58.716
0.336,-0.178,-0.234,-216.064,-67.383,62.134
0.286,-0.163,-0.092,-207.642,-44.983,64.453
0.296,-0.122,0.044,-166.321,-12.39,67.81
0.334,-0.07,0.143,-111.145,27.344,69.824
0.375,0.009,0.127,19.531,63.782,55.054
0.42,0.109,-0.057,112.244,88.928,29.175
0.461,0.15,-0.318,153.564,92.957,-5.127
0.479,0.102,-0.533,150.391,73.364,-34.912
0.48,-0.007,-0.63,130.92,41.443,-46.387
0.484,-0.125,-0.609,99.426,12.878,-38.208
0.467,-0.209,-0.476,48.95,1.831,-14.648
0.41,-0.205,-0.292,3.845,11.108,16.541
0.397,-0.109,-0.139,-32.715,34.973,43.518
0.451,0.019,-0.054,-44.983,56.274,50.232
0.51,0.113,-0.053,-38.086,68.054,39.612
0.565,0.127,-0.095,-23.437,66.772,21.912
0.597,0.069,-0.123,4.15,54.81,5.31
0.596,-0.01,-0.142,46.326,40.222,-2.625
0.577,-0.064,-0.163,60.852,28.809,-2.991
0.535,-0.087,-0.153,33.508,22.949,-1.343
0.479,-0.089,-0.093,-1.343,24.048,0
0.477,-0.065,0.006,-14.099,29.602,-0.916
0.578,-0.022,0.111,-1.831,37.72,-6.409
0.726,0.004,0.165,20.081,45.898,-17.883
0.827,-0.023,0.133,32.898,51.086,-28.015
0.866,-0.086,0.045,26.062,50.659,-28.442
0.87,-0.135,-0.048,-1.343,46.021,-18.433
0.846,-0.137,-0.123,-43.396,40.039,-1.526
1.94,-0.198,0.7,4.211,75.928,14.465
1.946,-0.166,0.358,24.902,95.459,43.274
1.816,-0.128,0.062,13.916,91.736,73.486
1.585,-0.03,-0.099,1.526,66.895,94.788
1.301,0.126,-0.153,-3.601,27.771,91.492
1.034,0.261,-0.079,-2.197,-19.348,60.059
0.952,0.301,0.121,27.405,-57.251,19.47
1.133,0.239,0.335,41.565,-76.416,-14.954
1.364,0.135,0.501,43.762,-70.313,-30.151
1.529,0.053,0.539,106.323,-32.959,-14.832
1.593,0.103,0.35,105.103,1.404,10.376
1.51,0.263,0.146,94.604,25.269,28.015
1.411,0.434,0.005,106.018,40.833,36.682
1.322,0.621,-0.085,102.234,46.692,31.006
1.207,0.752,-0.114,88.745,47.485,7.385
1.154,0.824,-0.097,78.613,34.729,-14.954
1.324,0.905,0.059,62.256,19.592,-35.706
1.712,0.942,0.332,37.231,9.705,-60.913
2.084,0.886,0.665,9.094,12.756,-84.167
2.352,0.792,0.918,-3.479,40.71,-95.154
2.608,0.763,0.898,-5.066,73.853,-104.919
2.907,0.758,0.699,-17.151,85.266,-133.85
3.293,0.593,0.555,-57.739,77.881,-181.763
3.582,0.2,0.452,24.902,55.908,-229.736
3.621,-0.231,0.274,20.63,42.542,-232.117
3.58,-0.631,0.141,-44.189,57.495,-188.293
3.414,-0.931,0.09,-38.879,50.415,-107.605
3.091,-0.93,0.044,7.69,39.673,-7.324
2.669,-0.611,-0.011,67.2,21.118,76.904
2.055,-0.101,-0.067,68.97,-8.118,125.549
1.388,0.407,-0.043,29.724,-45.41,123.474
0.875,0.737,0.055,0.244,-83.984,79.529
0.573,0.787,0.203,-18.25,-105.591,27.527
0.503,0.633,0.376,-20.264,-99.854,-0.977
0.599,0.472,0.465,-7.446,-67.932,-0.305
0.745,0.425,0.416,0.977,-27.039,15.137
0.852,0.488,0.271,7.69,8.85,30.64
0.907,0.59,0.083,18.25,25.085,36.133
0.898,0.648,-0.091,22.217,14.221,23.682
0.834,0.594,-0.154,14.526,-14.404,3.967
0.815,0.443,-0.057,-0.061,-43.64,-10.803
0.859,0.289,0.141,-9.399,-59.631,-14.404
0.902,0.204,0.35,-10.254,-52.49,-6.226
0.923,0.21,0.471,-5.859,-24.902,5.798
0.941,0.274,0.448,-1.465,10.681,15.32
0.998,0.348,0.293,4.944,34.973,17.212
1.103,0.381,0.083,5.432,33.997,8.606
1.214,0.328,-0.072,-3.235,9.155,-6.287
1.321,0.196,-0.088,-13.611,-20.63,-13.733
1.44,0.065,0.016,-14.099,-39.856,-9.155
1.568,-0.004,0.152,-6.714,-43.03,3.662
1.675,-0.021,0.257,4.456,-31.25,20.325
1.716,-0.005,0.301,17.334,-10.315,39.124
1.7,0.048,0.286,32.715,13.489,57.678
1.682,0.141,0.221,45.105,34.485,72.571
1.681,0.253,0.119,54.443,48.523,79.407
1.684,0.347,0.003,59.753,51.636,78.125
1.682,0.404,-0.09,55.42,42.542,70.435
1.653,0.419,-0.129,51.575,24.658,61.646
1.61,0.417,-0.106,56.58,7.324,56.396
1.59,0.423,-0.032,65.247,-3.845,51.88
1.604,0.418,0.077,67.871,-9.827,43.518
1.641,0.362,0.218,59.937,-12.878,30.64
1.68,0.236,0.375,44.006,-14.771,17.883
1.687,0.065,0.522,26.855,-14.038,13.977
1.655,-0.075,0.647,15.747,-7.996,24.597
1.619,-0.101,0.743,9.399,5.615,44.006
1.601,0.014,0.768,16.785,24.414,57.495
1.584,0.197,0.705,25.391,41.931,54.138
1.573,0.34,0.603,34.119,54.932,35.339
1.585,0.387,0.5,43.274,64.697,11.475
1.575,0.343,0.374,60.547,70.557,-7.996
1.505,0.253,0.224,61.462,65.857,-21.118
1.394,0.159,0.089,45.532,48.645,-25.513
1.315,0.072,0.006,11.169,21.851,-19.47
1.307,0.009,0,-19.653,-11.597,-6.104
1.333,-0.005,0.029,-42.114,-44.8,10.986
1.385,0.022,0.071,-73.547,-74.097,27.039
1.467,0.056,0.157,-112.488,-99.792,38.879
1.496,0.081,0.279,-140.564,-114.136,45.593
1.426,0.099,0.343,-142.578,-111.084,48.95
1.304,0.119,0.302,-138.062,-101.318,48.096
1.175,0.131,0.237,-139.343,-95.398,42.908
1.065,0.12,0.2,-133.423,-96.313,33.752
0.977,0.08,0.196,-128.174,-102.051,21.24
0.91,0.011,0.236,-132.629,-106.934,8.606
0.884,-0.085,0.31,-144.226,-104.614,2.869
0.912,-0.186,0.42,-157.043,-94.36,7.568
0.977,-0.252,0.54,-155.823,-75.378,21.606
1.01,-0.244,0.573,-134.399,-48.401,40.344
0.979,-0.149,0.469,-98.694,-24.902,55.481
0.91,-0.01,0.29,-52.979,-14.099,57.495
0.836,0.095,0.12,10.742,-19.226,42.542
0.782,0.113,-0.02,87.952,-40.649,14.282
0.728,0.032,-0.112,149.841,-76.477,-13.123
0.642,-0.126,-0.08,167.297,-104.858,-21.484
0.551,-0.29,0.08,144.287,-104.004,-8.667
0.494,-0.35,0.222,141.235,-74.707,15.564
0.48,-0.274,0.22,137.207,-30.579,34.058
0.525,-0.147,0.105,106.812,9.705,38.269
0.626,-0.075,-0.032,59.387,32.776,30.701
0.72,-0.123,-0.184,13.794,33.875,24.353
0.727,-0.231,-0.346,-41.809,13.611,26.794
0.652,-0.296,-0.485,-102.722,-20.63,39.185
0.564,-0.302,-0.553,-168.457,-58.044,54.688
0.507,-0.26,-0.499,-225.281,-85.938,66.467
0.468,-0.205,-0.335,-252.197,-93.872,71.96
0.403,-0.173,-0.146,-231.934,-80.566,70.496
0.304,-0.169,-0.028,-183.411,-52.063,65.063
0.207,-0.179,-0.013,-123.413,-17.09,59.082
0.142,-0.171,-0.071,-62.073,13.733,50.964
0.118,-0.153,-0.156,-1.587,33.63,37.598
0.128,-0.145,-0.24,55.664,40.466,20.874
0.17,-0.143,-0.272,93.323,37.354,5.249
0.246,-0.143,-0.197,118.347,33.203,-7.935
0.343,-0.135,-0.072,148.804,36.56,-18.799
0.448,-0.121,-0.01,158.386,49.072,-26.672
0.561,-0.127,-0.035,122.009,63.354,-32.715
0.627,-0.155,-0.1,64.697,69.031,-32.288
0.648,-0.169,-0.139,23.743,68.42,-25.085
1.858,0.042,0.938,71.472,66.04,-46.082
2.058,0.074,1.008,108.582,109.802,11.902
2.184,0.38,0.889,143.738,165.71,58.838
2.135,0.757,0.634,168.762,202.881,60.852
1.984,1.007,0.351,193.237,207.703,26.489
1.94,1.054,0.162,175.537,178.101,-19.47
2.009,0.925,0.188,146.545,123.962,-59.082
2.063,0.752,0.388,139.343,73.364,-79.529
2.211,0.669,0.626,137.573,47.302,-82.214
2.452,0.664,0.812,139.16,47.485,-82.031
2.595,0.671,0.899,145.63,78.796,-79.712
2.688,0.667,0.874,168.579,119.202,-72.449
2.829,0.629,0.769,186.584,139.099,-70.801
2.97,0.5,0.664,176.819,131.287,-78.003
2.999,0.265,0.603,152.1,103.699,-84.9
2.901,-0.024,0.647,105.408,71.167,-82.336
2.752,-0.302,0.728,168.091,32.715,-73.303
2.61,-0.468,0.693,161.804,-3.906,-53.223
2.458,-0.51,0.698,59.021,-28.381,-36.316
2.232,-0.486,0.773,-1.404,-45.349,-22.949
1.92,-0.389,0.745,2.136,-53.223,-6.409
1.596,-0.194,0.637,-3.845,-46.204,17.09
1.358,0.088,0.454,6.287,-34.119,35.278
1.219,0.378,0.215,7.69,-25.452,38.452
1.144,0.583,0.006,1.709,-24.17,30.212
1.091,0.672,-0.134,-6.47,-32.593,18.25
1.005,0.676,-0.176,-14.099,-46.631,8.606
0.881,0.632,-0.126,-7.141,-55.664,5.249
0.78,0.587,-0.036,5.554,-56.824,7.385
0.746,0.567,0.056,6.287,-51.331,8.057
0.779,0.538,0.142,-3.235,-39.063,4.761
0.855,0.472,0.202,-11.597,-25.818,0.061
0.91,0.373,0.233,-21.118,-19.836,-2.502
0.901,0.28,0.266,-27.405,-20.569,-0.366
0.879,0.244,0.311,-26.123,-21.24,5.981
0.863,0.256,0.349,-29.114,-21.057,8.484
0.836,0.258,0.382,-37.354,-20.752,6.836
0.811,0.242,0.417,-34.729,-20.752,6.592
0.818,0.248,0.436,-37.781,-15.869,9.46
0.884,0.275,0.422,-44.434,-13.306,8.24
0.948,0.275,0.41,-52.429,-15.747,2.258
0.963,0.232,0.425,-47.791,-16.235,-0.854
0.956,0.2,0.426,-35.156,-12.939,3.784
0.955,0.234,0.404,-32.166,-6.042,10.803
0.976,0.311,0.362,-28.503,0.854,12.573
1.012,0.361,0.306,-21.484,4.089,8.118
1.056,0.347,0.258,-10.193,2.808,3.479
1.12,0.288,0.243,0.244,-1.16,3.662
1.19,0.229,0.268,8.789,-5.188,9.033
1.247,0.206,0.316,18.188,-5.005,17.578
1.293,0.22,0.359,25.208,0.854,25.574
1.321,0.248,0.385,29.602,9.338,30.518
1.325,0.264,0.402,34.851,16.235,31.799
1.322,0.255,0.426,38.33,22.766,31.86
1.325,0.238,0.455,40.649,29.846,33.875
1.34,0.24,0.48,40.161,38.513,37.109
1.392,0.272,0.497,36.072,47.363,38.208
1.514,0.315,0.51,29.114,53.345,36.865
1.678,0.346,0.524,25.146,58.228,34.363
1.793,0.365,0.515,21.179,62.988,32.349
1.843,0.394,0.475,14.526,61.829,31.311
1.876,0.43,0.431,5.31,50.781,29.541
1.896,0.449,0.406,-7.751,33.997,28.503
1.87,0.461,0.403,-18.799,14.404,28.381
1.805,0.482,0.423,-27.344,-5.554,28.992
1.739,0.518,0.474,-33.203,-20.874,30.396
1.689,0.558,0.558,-39.063,-25.269,30.457
1.662,0.582,0.631,-38.147,-18.616,27.649
1.685,0.583,0.641,-37.354,-8.85,24.78
1.757,0.577,0.593,-34.607,-4.578,22.949
1.831,0.555,0.511,-37.292,-7.141,19.775
1.848,0.493,0.401,-40.344,-20.081,15.564
1.807,0.414,0.295,-52.429,-44.495,16.846
1.722,0.352,0.244,-67.2,-73.547,24.109
1.6,0.327,0.262,-76.66,-96.313,31.616
1.468,0.326,0.343,-85.938,-107.544,37.231
1.37,0.33,0.466,-89.661,-109.07,37.292
1.303,0.322,0.574,-99.854,-103.455,30.64
1.228,0.297,0.627,-114.014,-92.712,20.081
1.159,0.258,0.645,-130.737,-81.543,8.728
1.093,0.215,0.639,-132.263,-73.914,-3.296
1.066,0.184,0.579,-139.587,-71.899,-14.648
1.102,0.148,0.5,-144.104,-81.665,-26.123
1.125,0.096,0.433,-138.672,-97.778,-35.4
1.103,0.049,0.366,-131.958,-112,-36.316
1.061,0.016,0.334,-134.399,-119.812,-28.198
0.998,0.002,0.37,-137.939,-117.188,-15.259
0.901,0.015,0.423,-132.385,-103.455,-3.113
0.772,0.044,0.432,-118.713,-82.52,4.272
0.643,0.064,0.381,-98.877,-60.303,5.676
0.52,0.069,0.289,-75.745,-44.8,1.099
0.451,0.063,0.195,-50.293,-37.842,-8.118
0.467,0.014,0.156,-10.559,-37.842,-23.621
0.495,-0.1,0.158,52.673,-39.856,-32.288
0.508,-0.232,0.149,102.905,-35.645,-23.254
0.507,-0.315,0.133,134.46,-24.963,1.099
0.493,-0.322,0.102,144.47,-10.254,31.433
0.487,-0.258,0.039,139.404,3.845,55.725
0.478,-0.171,-0.051,113.953,12.146,66.284
0.421,-0.109,-0.162,72.021,12.756,64.636
0.349,-0.098,-0.248,3.967,7.08,58.167
0.301,-0.126,-0.284,-66.711,-4.089,52.673
0.281,-0.143,-0.302,-139.648,-15.32,51.575
0.289,-0.117,-0.295,-225.769,-22.766,51.453
0.298,-0.056,-0.263,-297.302,-26.123,46.875
0.305,0.018,-0.251,-327.454,-27.405,36.987
0.302,0.071,-0.249,-332.886,-30.945,21.667
0.269,0.083,-0.212,-305.298,-34.485,6.226
0.215,0.068,-0.173,-257.202,-32.837,-4.944
0.16,0.041,-0.112,-232.239,-23.682,-12.634
0.13,0.005,-0.008,-171.448,-11.169,-13.794
0.141,-0.037,0.061,-110.718,5.676,-13.306
0.186,-0.091,0.113,-62.439,22.522,-10.437
0.278,-0.147,0.19,3.54,38.147,-4.089
0.411,-0.177,0.233,95.52,50.11,0.854
0.552,-0.161,0.193,175.659,53.833,1.221
0.659,-0.121,0.089,218.567,47.424,-2.258
0.693,-0.089,-0.029,213.379,30.884,-6.348
0.654,-0.075,-0.088,174.194,7.874,-7.385
0.594,-0.084,-0.038,127.686,-12.39,-5.31
1.566,0.516,0.461,-43.945,-126.465,-162.109
1.581,0.114,0.663,-43.64,-75.623,-106.628
1.615,-0.012,0.786,-13.367,14.832,7.935
1.753,0.147,0.815,45.898,113.953,120.117
1.807,0.419,0.737,100.464,192.993,191.895
1.756,0.672,0.551,135.071,225.647,201.111
1.68,0.849,0.45,154.419,195.007,136.353
1.653,0.893,0.422,140.503,129.211,26.001
1.734,0.681,0.669,41.687,74.646,-78.796
1.966,0.323,0.92,78.003,63.965,-122.437
2.282,0.021,1.065,78.491,88.623,-96.069
2.542,-0.062,1.136,196.045,139.16,-21.606
2.708,0.139,0.975,211.243,192.993,46.021
2.922,0.422,0.822,210.144,225.464,68.542
3.171,0.489,0.679,263.55,225.525,30.884
3.411,0.313,0.396,281.982,198.242,-18.372
3.678,0.073,0.144,91.492,180.42,-56.885
3.791,-0.162,0.057,-41.931,172.974,-80.688
3.727,-0.386,-0.07,-82.336,163.025,-84.229
3.384,-0.622,-0.194,-42.603,138,-59.57
2.825,-0.813,-0.303,-48.157,87.891,-17.029
2.375,-0.932,-0.289,-65.735,10.071,27.527
1.963,-0.936,-0.162,-54.993,-78.186,65.796
1.526,-0.778,0.006,-11.414,-158.813,102.112
1.212,-0.496,0.198,11.414,-216.614,131.104
1.038,-0.174,0.409,7.874,-235.657,149.597
0.925,0.132,0.586,8.667,-217.468,159.241
0.866,0.41,0.66,12.756,-169.006,161.865
0.889,0.647,0.62,1.953,-101.318,154.663
0.933,0.819,0.488,-15.198,-29.907,131.287
0.984,0.909,0.283,-25.391,26.917,94.36
1.037,0.896,0.059,-29.48,58.96,45.776
1.045,0.769,-0.126,-27.222,62.195,-7.812
1.015,0.549,-0.226,-31.494,42.175,-53.406
0.975,0.296,-0.233,-30.64,11.292,-80.811
0.94,0.058,-0.165,-33.936,-21.973,-86.243
0.945,-0.141,-0.044,-27.1,-50.11,-73.242
1.011,-0.279,0.096,-18.311,-68.909,-48.401
1.089,-0.352,0.245,-11.597,-74.219,-17.883
1.125,-0.364,0.374,6.836,-68.115,10.376
1.107,-0.33,0.457,18.433,-57.007,29.358
1.069,-0.264,0.506,28.198,-42.908,39.185
1.049,-0.186,0.512,32.166,-26.55,40.466
1.032,-0.122,0.47,26.123,-11.23,36.316
1.036,-0.083,0.405,27.527,-1.16,33.569
1.075,-0.055,0.332,35.339,2.808,32.837
1.106,-0.027,0.268,39.001,1.831,32.104
1.138,0,0.219,46.204,-5.493,28.259
1.177,0.014,0.195,42.786,-17.151,19.287
1.197,0.002,0.2,38.269,-29.358,8.484
1.222,-0.033,0.229,34.729,-37.781,0.488
1.274,-0.087,0.268,34.424,-38.086,0.061
1.326,-0.138,0.302,34.302,-29.175,10.01
1.356,-0.141,0.317,37.781,-13.367,28.076
1.357,-0.066,0.293,43.823,5.066,45.227
1.316,0.066,0.239,50.537,22.827,53.772
1.281,0.216,0.176,54.199,37.964,52.063
1.323,0.345,0.112,54.321,47.302,36.133
1.443,0.411,0.049,45.288,47.058,7.629
1.6,0.377,0.002,36.56,37.048,-25.33
1.725,0.249,-0.02,22.156,23.254,-52.002
1.783,0.063,0.013,4.028,11.658,-62.561
1.789,-0.107,0.083,-0.732,4.333,-53.833
1.755,-0.178,0.16,-10.376,1.953,-32.715
1.698,-0.128,0.213,-9.399,0.427,-15.381
1.631,-0.017,0.227,-16.235,-3.906,-12.512
1.602,0.063,0.232,-22.278,-9.766,-17.883
1.666,0.093,0.243,-26.123,-16.174,-21.423
1.774,0.093,0.272,-27.466,-16.968,-21.057
1.839,0.067,0.29,-25.879,-13.306,-16.907
1.86,0.029,0.296,-22.766,-11.108,-7.507
1.858,-0.01,0.318,-16.907,-11.963,6.348
1.824,-0.052,0.364,-12.451,-9.583,26.245
1.741,-0.083,0.416,-9.766,-4.7,50.11
1.598,-0.074,0.438,-10.315,1.16,72.815
1.416,-0.013,0.42,-9.46,3.174,86.792
1.234,0.068,0.383,-7.446,-4.333,84.778
1.075,0.128,0.361,-10.132,-19.043,68.604
0.979,0.154,0.371,-21.545,-35.095,43.884
0.962,0.111,0.412,-37.72,-48.95,15.32
1.013,0.011,0.443,-52.124,-57.556,-4.883
1.069,-0.084,0.447,-73.242,-61.401,-14.221
1.078,-0.142,0.413,-90.698,-63.904,-13.855
1.049,-0.159,0.339,-115.234,-67.078,-7.385
0.99,-0.125,0.273,-138.489,-72.449,1.892
0.927,-0.057,0.239,-160.034,-76.721,8.057
0.861,-0.005,0.267,-171.204,-76.965,8.362
0.788,0.018,0.304,-172.852,-67.688,4.944
0.715,0.018,0.317,-174.133,-54.81,0.854
0.645,-0.001,0.337,-166.138,-40.71,-3.601
0.571,-0.025,0.366,-149.536,-22.705,-7.751
0.497,-0.047,0.376,-118.591,0.366,-9.644
0.45,-0.074,0.349,-79.102,24.414,-7.935
0.432,-0.09,0.283,-24.414,44.8,-3.601
0.449,-0.073,0.175,32.532,59.57,1.77
0.527,-0.046,0.045,79.834,63.843,4.028
0.63,-0.024,-0.077,100.403,54.565,0.488
0.693,-0.019,-0.17,97.412,31.311,-8.301
0.705,-0.036,-0.221,73.181,0.793,-16.602
0.685,-0.07,-0.233,37.842,-29.297,-21.484
0.639,-0.113,-0.204,-10.315,-52.979,-21.118
0.591,-0.146,-0.14,-53.04,-67.932,-15.32
0.56,-0.153,-0.073,-96.313,-72.571,-5.981
0.545,-0.13,-0.03,-140.991,-68.542,1.465
0.563,-0.091,0.012,-195.74,-60.425,1.648
0.614,-0.06,0.045,-226.929,-53.04,-6.531
0.673,-0.089,0.118,-257.69,-45.41,-17.7
0.699,-0.165,0.23,-267.7,-26.123,-20.508
0.684,-0.159,0.203,-266.907,0.244,-11.536
0.677,-0.065,0.071,-264.893,15.076,-5.066
0.667,0.013,-0.029,-262.268,18.188,-6.775
0.633,0.058,-0.042,-260.376,19.226,-10.254
0.584,0.107,-0.042,-223.999,18.311,-14.16
0.546,0.142,-0.046,-200.073,19.043,-23.132
0.57,0.124,-0.011,-164.124,20.752,-34.424
0.662,0.055,0.024,-115.662,21.484,-45.166
0.771,-0.032,0.03,-56.702,18.616,-51.636
0.864,-0.118,-0.01,-2.869,8.972,-51.208
0.918,-0.196,-0.059,42.236,-8.606,-40.71
0.905,-0.246,-0.083,81.909,-30.151,-17.334
1.544,-0.262,0.897,60.425,106.262,-9.46
1.64,-0.078,0.8,44.617,122.375,-4.089
1.758,0.093,0.641,1.831,131.165,-7.263
1.896,0.154,0.532,-47.058,128.235,-7.385
1.995,0.139,0.55,-68.298,114.502,-0.549
1.964,0.173,0.609,-47.729,109.375,14.771
1.809,0.183,0.548,-21.423,107.422,26.428
1.702,0.2,0.502,-164.307,85.266,52.734
1.791,0.29,0.833,-14.038,75.684,77.698
1.945,0.506,0.656,299.683,59.753,73.364
2.011,0.74,0.333,125.183,23.926,53.772
2.089,0.858,0.488,144.043,-2.197,33.997
2.297,0.984,0.456,115.906,-21.729,6.653
2.516,1.071,0.493,55.542,-29.541,-27.954
2.724,1.112,0.587,23.743,-21.179,-66.04
3.066,1.053,0.724,-39.368,13.184,-109.985
3.325,0.841,0.814,104.309,71.228,-159.668
3.359,0.578,0.483,152.71,150.391,-180.298
3.409,0.29,0.143,-15.442,235.596,-171.326
3.458,0.039,-0.076,25.33,266.541,-159.912
3.313,-0.171,-0.389,31.006,243.347,-157.349
2.998,-0.415,-0.531,33.997,175.232,-144.348
2.617,-0.649,-0.543,74.402,78.125,-114.807
2.197,-0.924,-0.415,83.862,-29.48,-63.843
1.799,-1.105,-0.051,114.624,-123.962,20.874
1.48,-0.832,0.376,166.931,-182.007,109.497
1.23,-0.187,0.724,188.293,-200.012,148.071
0.992,0.432,0.952,177.673,-179.81,130.615
0.764,0.809,1.004,91.614,-127.136,86.548
0.629,0.925,0.894,34.485,-61.157,46.326
0.639,0.905,0.613,25.33,-0.793,24.597
0.759,0.852,0.255,31.738,48.34,20.081
0.921,0.796,-0.075,47.546,80.078,25.33
1.088,0.749,-0.341,66.833,88.074,32.898
1.242,0.711,-0.502,67.81,70.496,35.645
1.356,0.643,-0.525,50.476,34.18,31.738
1.423,0.525,-0.405,26.428,-10.498,26.367
1.442,0.389,-0.171,3.784,-50.659,24.353
1.438,0.267,0.113,-16.785,-72.998,27.954
1.458,0.162,0.386,-34.607,-76.172,35.583
1.472,0.089,0.593,-46.326,-63.904,46.509
1.473,0.079,0.705,-48.828,-37.659,62.012
1.486,0.153,0.704,-43.701,-4.456,76.172
1.513,0.278,0.604,-40.405,26.672,81.787
1.568,0.374,0.448,-43.762,47.974,77.576
1.631,0.393,0.303,-52.917,52.795,68.42
1.649,0.364,0.218,-56.091,42.725,61.34
1.653,0.336,0.208,-54.138,24.902,58.655
1.682,0.331,0.253,-43.152,4.395,54.382
1.728,0.317,0.296,-38.513,-16.602,45.227
1.752,0.247,0.352,-43.457,-36.377,38.208
1.722,0.169,0.439,-38.513,-50.781,39.978
1.69,0.139,0.537,-37.354,-55.115,46.692
1.685,0.164,0.616,-21.423,-49.622,53.345
1.722,0.217,0.657,-5.676,-37.109,55.664
1.834,0.253,0.682,7.935,-20.935,54.26
1.957,0.237,0.681,21.179,1.404,52.49
1.985,0.175,0.618,32.959,25.513,57.312
1.911,0.137,0.488,47.241,41.992,70.923
1.772,0.168,0.336,57.922,45.349,84.167
1.606,0.246,0.215,66.65,32.959,87.402
1.443,0.322,0.159,80.383,9.094,77.026
1.306,0.348,0.168,77.637,-14.893,55.969
1.227,0.297,0.229,60.303,-32.104,36.194
1.266,0.208,0.31,41.748,-43.579,23.376
1.362,0.119,0.386,27.649,-51.392,17.151
1.407,0.047,0.439,2.258,-51.514,18.005
1.396,0,0.459,-19.653,-46.204,27.161
1.342,-0.015,0.423,-48.035,-40.71,39.673
1.241,-0.003,0.362,-73.792,-41.138,50.232
1.104,0.008,0.306,-71.35,-47.302,57.739
0.96,0.01,0.269,-73.12,-54.443,62.744
0.845,0.012,0.263,-81.299,-58.655,64.819
0.759,0.027,0.267,-102.844,-59.143,63.171
0.677,0.041,0.304,-123.779,-54.688,56.885
0.596,0.023,0.348,-134.766,-43.945,46.143
0.522,-0.03,0.356,-139.709,-28.748,37.598
0.455,-0.099,0.34,-136.841,-13.062,35.583
0.411,-0.158,0.323,-111.206,-0.244,39.185
0.408,-0.175,0.306,-59.753,8.789,44.861
0.44,-0.144,0.285,12.329,14.404,44.739
0.462,-0.092,0.239,86.67,16.296,34.607
0.453,-0.051,0.171,137.634,16.235,18.799
0.421,-0.031,0.109,161.499,14.893,-0.549
0.369,-0.05,0.078,154.846,16.663,-23.376
0.316,-0.108,0.051,141.968,20.264,-43.64
0.257,-0.173,-0.007,111.694,26.123,-59.692
0.218,-0.238,-0.084,84.473,28.625,-72.144
0.2,-0.287,-0.215,63.11,19.531,-78.796
0.256,-0.307,-0.333,14.221,0.183,-79.773
0.446,-0.304,-0.348,-55.664,-27.832,-75.378
0.568,-0.302,-0.318,-114.319,-46.387,-69.824
0.634,-0.316,-0.341,-148.987,-65.613,-60.73
0.662,-0.33,-0.394,-193.481,-84.839,-44.495
0.608,-0.318,-0.379,-221.069,-99.121,-26.978
0.571,-0.259,-0.299,-225.281,-106.079,-10.742
0.542,-0.167,-0.162,-226.196,-99.915,-3.784
0.521,-0.088,-0.018,-212.769,-82.458,-9.094
0.502,-0.064,0.072,-190.491,-59.692,-23.682
0.497,-0.099,0.097,-156.616,-41.077,-38.879
0.53,-0.163,0.086,-122.253,-30.273,-47.18
0.605,-0.224,0.087,-78.796,-27.222,-45.593
0.686,-0.241,0.092,-29.724,-26.062,-34.729
0.746,-0.195,0.078,15.32,-21.423,-17.639
0.784,-0.102,0.045,54.626,-16.113,-2.808
0.792,-0.001,-0.004,83.984,-11.414,4.517
0.781,0.058,-0.056,101.501,-11.475,3.54
0.763,0.051,-0.071,105.591,-16.968,-1.16
0.763,-0.003,-0.025,97.778,-23.804,-2.747
0.805,-0.054,0.058,71.045,-25.391,2.136
0.87,-0.077,0.129,32.898,-21.484,10.01
0.893,-0.083,0.154,-7.996,-15.93,17.822
0.869,-0.082,0.135,-35.889,-11.414,25.879
0.831,-0.067,0.091,-49.377,-9.216,32.471
0.785,-0.043,0.047,-47.607,-9.277,35.4
0.736,-0.015,0.004,-32.715,-10.498,34.424
0.687,0.015,-0.045,-14.343,-12.451,28.748
0.629,0.033,-0.087,1.404,-15.32,18.738
0.578,0.034,-0.106,18.127,-17.883,5.371
0.599,0.012,-0.077,30.518,-20.447,-8.484
2.05,0.241,0.309,-21.057,-74.036,-6.714
2.044,0.021,0.418,-36.865,-67.81,18.066
1.914,-0.026,0.529,-40.771,-14.16,76.111
1.778,0.162,0.545,-27.588,63.171,139.099
1.668,0.565,0.458,6.714,127.075,170.227
1.626,1.023,0.271,1.831,161.194,146.606
1.753,1.306,0.317,-14.099,140.442,60.547
2.025,1.32,0.25,95.154,64.331,-74.646
2.475,0.848,0.63,-43.701,-3.845,-203.857
3.098,0.137,0.894,290.771,-8.789,-253.235
3.459,-0.322,0.6,161.926,25.452,-209.839
3.441,-0.407,0.623,112,133.667,-88.623
3.464,-0.001,0.489,166.87,242.92,16.479
3.593,0.43,0.17,142.944,291.992,19.836
3.639,0.417,-0.042,-0.061,277.893,-27.344
3.517,0.205,-0.086,6.165,235.413,-67.688
3.325,0.088,-0.291,53.65,185.12,-88.867
3.136,0.007,-0.377,11.658,139.282,-95.52
2.857,-0.088,-0.323,179.626,96.008,-76.66
2.481,-0.11,-0.475,236.694,68.115,-33.386
2.069,-0.074,-0.539,112.61,31.189,13.855
1.591,0.011,-0.374,65.308,-23.01,57.19
1.18,0.176,-0.215,86.365,-70.862,94.238
1.027,0.394,-0.094,91.614,-95.642,115.723
1.08,0.615,-0.011,91.553,-98.816,113.77
1.194,0.79,0.024,55.664,-82.642,89.6
1.292,0.873,0.055,17.212,-55.481,47.852
1.349,0.825,0.068,-4.15,-29.297,-0.549
1.345,0.639,0.076,-21.24,-13.306,-38.757
1.26,0.406,0.108,-18.616,-11.169,-54.932
1.115,0.22,0.151,-4.822,-22.339,-50.903
0.95,0.101,0.203,1.099,-40.222,-31.86
0.819,0.06,0.272,-11.658,-56.519,-4.089
0.781,0.109,0.363,-26.001,-64.819,23.743
0.823,0.237,0.433,-30.945,-63.232,41.748
0.924,0.389,0.458,-35.4,-46.631,45.288
1.072,0.499,0.431,-30.762,-20.447,33.569
1.188,0.525,0.346,-17.395,5.493,13.367
1.249,0.455,0.235,-8.606,23.987,-4.395
1.313,0.331,0.145,-0.61,32.166,-12.329
1.393,0.205,0.09,3.723,29.785,-9.277
1.464,0.112,0.07,-2.197,19.287,3.113
1.504,0.066,0.086,-9.094,6.226,20.935
1.506,0.07,0.127,-15.015,-4.272,39.49
1.498,0.122,0.191,-15.869,-9.033,54.993
1.493,0.205,0.246,-7.812,-7.202,63.293
1.473,0.298,0.264,-3.601,-0.977,63.11
1.46,0.381,0.254,-2.991,4.883,54.81
1.462,0.438,0.236,0.977,8.362,39.734
1.461,0.466,0.214,4.456,10.254,22.278
1.474,0.46,0.195,11.902,11.292,6.104
1.545,0.425,0.165,27.344,9.277,-7.812
1.651,0.379,0.12,33.264,2.93,-17.578
1.742,0.323,0.093,31.067,-4.822,-20.935
1.816,0.257,0.084,29.907,-12.085,-18.677
1.868,0.174,0.098,20.569,-19.958,-12.146
1.862,0.08,0.148,10.62,-29.053,-0.305
1.792,0.013,0.226,4.211,-35.156,18.433
1.711,-0.002,0.31,2.319,-33.386,41.321
1.661,0.032,0.392,-3.418,-22.766,63.232
1.647,0.1,0.46,-3.113,-6.409,78.125
1.669,0.184,0.486,-1.892,10.193,83.374
1.699,0.25,0.471,2.258,20.325,78.064
1.694,0.286,0.397,12.329,19.958,64.026
1.621,0.277,0.288,3.784,8.118,46.265
1.491,0.219,0.184,1.038,-8.85,33.447
1.357,0.149,0.089,0.183,-31.982,27.283
1.251,0.096,0.023,-6.165,-58.96,27.893
1.181,0.061,0.008,-23.071,-80.933,33.264
1.123,0.044,0.067,-52.246,-90.881,41.016
1.063,0.047,0.197,-80.078,-87.83,46.631
1.033,0.055,0.348,-101.99,-71.411,49.133
1.064,0.044,0.477,-121.399,-46.875,50.354
1.133,0.007,0.568,-136.78,-16.479,55.237
1.169,-0.031,0.591,-147.766,17.212,62.866
1.124,-0.011,0.512,-145.142,44.556,68.42
1.02,0.079,0.335,-128.54,52.185,60.486
0.889,0.179,0.114,-115.479,32.166,32.471
0.771,0.183,-0.059,-118.652,-12.512,-8.545
0.705,0.057,-0.115,-110.596,-71.411,-45.532
0.692,-0.13,-0.046,-92.285,-127.136,-62.378
0.696,-0.327,0.146,-71.594,-162.048,-56.641
0.643,-0.495,0.415,-45.837,-162.354,-29.175
0.488,-0.539,0.65,1.099,-126.221,13.794
0.311,-0.362,0.714,64.453,-67.383,50.232
0.225,-0.026,0.573,123.291,-7.874,56.396
0.258,0.276,0.29,161.011,32.593,24.353
0.396,0.385,-0.035,175.293,42.053,-30.151
0.537,0.243,-0.317,168.213,20.142,-81.177
0.606,-0.118,-0.495,125.793,-23.071,-97.717
0.644,-0.389,-0.551,85.144,-70.801,-63.232
0.712,-0.399,-0.513,27.71,-108.643,-17.09
0.781,-0.338,-0.356,-53.467,-129.639,22.827
0.77,-0.282,-0.078,-134.46,-125.977,56.274
0.696,-0.236,0.194,-203.613,-92.163,82.886
0.612,-0.185,0.337,-264.771,-42.297,104.37
0.549,-0.106,0.363,-315.491,8.484,116.821
0.5,-0.004,0.292,-321.167,51.331,118.347
0.454,0.112,0.113,-289.673,77.209,105.652
0.405,0.221,-0.129,-249.084,77.82,75.867
0.363,0.278,-0.317,-212.341,53.772,35.828
0.361,0.263,-0.392,-142.456,16.479,-2.563
0.372,0.185,-0.37,-63.782,-20.508,-34.18
0.382,0.064,-0.252,0.061,-43.213,-53.284
0.411,-0.047,-0.086,60.974,-47.363,-57.556
0.467,-0.101,0.052,117.737,-35.034,-52.307
0.543,-0.096,0.119,160.217,-13.367,-46.753
0.623,-0.07,0.093,180.542,7.996,-45.288
0.683,-0.061,0.002,174.561,19.653,-46.326
0.719,-0.069,-0.098,153.809,20.569,-43.884
0.768,-0.067,-0.174,126.709,12.634,-37.598
0.826,-0.048,-0.22,93.567,-1.343,-31.006
0.852,-0.046,-0.231,49.194,-15.259,-24.536
0.825,-0.048,-0.235,11.902,-25.635,-13.794
0.783,-0.015,-0.245,-10.193,-34.241,-2.502
0.751,0.034,-0.228,-17.517,-41.321,4.822
0.724,0.059,-0.167,-15.686,-42.175,7.69
0.699,0.052,-0.088,-0.732,-36.438,7.385
0.68,0.028,-0.035,17.517,-27.039,4.272
0.674,-0.01,-0.01,32.532,-17.822,0.61
2.145,0.021,0.764,-102.173,-164.185,-122.314
2.268,-0.251,0.96,-114.075,-135.803,-65.491
2.308,-0.344,0.942,-52.673,-93.201,15.32
2.236,-0.195,0.836,-64.819,-48.218,105.591
2.069,0.143,0.81,-18.921,6.653,180.481
1.952,0.506,0.884,82.458,72.51,215.027
1.87,0.813,0.614,301.758,121.033,191.895
1.751,0.991,0.204,213.867,114.197,137.756
1.895,1.095,0.07,160.522,86.792,95.459
2.288,1.221,0.094,72.144,63.171,46.448
2.551,1.308,0.257,35.217,65.002,-17.151
2.718,1.26,0.343,34.18,90.515,-79.834
2.911,0.987,0.424,68.665,125.488,-124.268
3.076,0.656,0.281,145.935,161.865,-140.93
3.216,0.413,0.13,74.097,202.881,-140.198
3.273,0.196,0.069,36.438,226.135,-145.447
3.166,-0.06,-0.05,-25.146,229.065,-144.592
2.978,-0.311,-0.124,-1.831,207.703,-131.47
2.771,-0.477,-0.18,30.09,164.734,-105.408
2.556,-0.566,-0.21,93.75,106.018,-79.59
2.333,-0.611,-0.239,121.216,42.236,-42.664
2.098,-0.583,-0.264,117.065,-16.296,4.028
1.857,-0.461,-0.244,49.561,-71.411,50.72
1.638,-0.261,-0.144,44.312,-122.253,94.971
1.45,0.006,-0.059,45.776,-158.875,130.005
1.28,0.291,0.035,45.532,-178.406,151.123
1.089,0.556,0.138,30.09,-179.687,158.142
0.878,0.783,0.246,16.968,-161.987,153.503
0.729,0.963,0.339,12.695,-126.648,136.963
0.727,1.083,0.391,26.245,-77.087,104.98
0.836,1.115,0.369,36.743,-22.522,57.678
0.94,1.006,0.268,38.757,27.466,7.568
0.992,0.774,0.117,34.668,62.927,-28.442
1.025,0.518,-0.021,23.132,79.895,-43.762
1.067,0.311,-0.13,16.479,76.416,-41.626
1.103,0.165,-0.188,-0.366,54.932,-28.503
1.139,0.081,-0.188,-11.108,22.034,-10.559
1.183,0.048,-0.136,-25.269,-13,6.531
1.218,0.053,-0.032,-35.767,-43.213,20.02
1.256,0.081,0.103,-37.842,-64.27,28.076
1.316,0.111,0.233,-31.494,-71.411,31.616
1.391,0.133,0.33,-33.691,-62.805,32.532
1.474,0.148,0.385,-32.532,-40.405,34.302
1.553,0.159,0.376,-27.161,-10.376,37.964
1.596,0.177,0.307,-18.921,19.592,44.25
1.612,0.21,0.218,-8.362,45.41,51.636
1.633,0.25,0.135,7.629,63.843,57.434
1.67,0.286,0.066,23.682,74.829,60.974
1.714,0.303,0.012,35.339,77.454,62.012
1.739,0.296,-0.024,37.598,69.58,60.913
1.753,0.273,-0.034,35.461,50.476,58.899
1.762,0.251,-0.012,31.555,24.17,56.946
1.756,0.239,0.041,25.94,-3.601,54.504
1.741,0.241,0.107,18.738,-28.809,50.415
1.74,0.247,0.18,10.681,-47.241,46.021
1.788,0.254,0.265,8.789,-56.824,42.358
1.903,0.266,0.347,11.902,-56.335,39.307
2.009,0.278,0.414,10.498,-42.297,36.438
2.071,0.269,0.456,9.705,-19.714,32.959
2.085,0.222,0.598,16.724,0.244,28.259
2.016,0.097,0.823,21.362,41.138,28.015
1.877,0.016,0.786,23.743,94.299,46.326
1.697,0.148,0.533,42.603,113.525,58.533
1.521,0.357,0.306,51.208,112.915,50.842
1.404,0.46,0.143,38.818,95.398,26.001
1.335,0.429,0.054,26.55,66.589,-0.732
1.315,0.325,0.008,8.667,30.151,-16.785
1.343,0.215,0.003,-11.292,-10.803,-20.081
1.355,0.149,0.017,-39.246,-48.401,-14.465
1.333,0.123,0.094,-89.417,-75.989,-4.517
1.301,0.124,0.203,-114.685,-94.727,3.479
1.273,0.137,0.277,-152.527,-103.149,7.385
1.208,0.131,0.362,-197.51,-102.539,9.949
1.111,0.109,0.426,-222.29,-97.412,8.85
1.017,0.096,0.441,-243.225,-92.712,3.662
0.929,0.085,0.432,-261.902,-88.257,-5.432
0.836,0.029,0.443,-278.076,-81.604,-16.174
0.753,-0.063,0.485,-276.367,-71.228,-20.752
0.732,-0.149,0.533,-271.484,-57.312,-19.165
0.746,-0.203,0.565,-241.699,-44.25,-14.099
0.733,-0.204,0.549,-198.425,-31.921,-10.254
0.688,-0.174,0.507,-145.63,-22.583,-10.376
0.65,-0.155,0.451,-71.167,-18.127,-16.785
0.614,-0.168,0.369,21.973,-19.348,-24.719
0.561,-0.206,0.273,116.638,-26.306,-29.175
0.48,-0.235,0.172,180.542,-32.654,-25.635
0.406,-0.253,0.097,199.646,-31.86,-17.517
0.369,-0.256,0.046,210.815,-27.039,-8.667
0.352,-0.246,-0.028,190.369,-17.09,-1.038
0.386,-0.236,-0.111,144.165,-8.545,6.653
0.463,-0.222,-0.185,86.731,-9.521,11.597
0.527,-0.205,-0.256,21.851,-18.311,14.832
0.574,-0.197,-0.326,-47.791,-32.166,20.264
0.599,-0.191,-0.392,-119.202,-48.706,29.419
0.587,-0.177,-0.429,-194.824,-65.063,39.185
0.522,-0.153,-0.411,-262.878,-80.383,45.227
0.427,-0.12,-0.338,-301.697,-91.309,46.387
0.348,-0.072,-0.25,-293.701,-93.689,42.847
0.279,-0.023,-0.184,-261.108,-86.914,35.339
0.227,-0.009,-0.134,-214.905,-73.608,27.161
0.223,-0.038,-0.093,-158.508,-60.181,20.081
0.244,-0.08,-0.074,-101.501,-47.974,15.93
0.251,-0.108,-0.076,-37.964,-36.926,16.663
0.249,-0.101,-0.066,40.039,-27.283,20.081
0.263,-0.056,-0.05,125.427,-14.648,21.362
0.293,-0.001,-0.049,207.214,1.892,17.151
0.34,0.039,-0.104,280.396,17.578,6.897
0.396,0.036,-0.206,314.392,23.621,-7.69
0.448,-0.006,-0.342,299.988,16.907,-19.836
0.515,-0.071,-0.415,220.337,-2.93,-24.475
0.593,-0.138,-0.342,128.906,-25.879,-19.592
0.66,-0.173,-0.185,37.415,-36.133,-6.042
0.702,-0.177,-0.01,-24.78,-28.015,11.047
0.715,-0.158,0.095,-55.176,-8.057,26.062
0.693,-0.12,0.092,-57.739,10.986,35.095
0.645,-0.08,0.023,-38.818,22.339,37.048
0.615,-0.044,-0.06,-7.629,27.832,33.447
0.619,-0.026,-0.146,21.118,28.564,24.475
0.619,-0.03,-0.242,20.264,21.667,12.634
0.589,-0.052,-0.295,-12.024,9.155,2.014
