aX,aY,aZ,gX,gY,gZ
0.279,-1.108,1.263,-38.147,-7.874,-48.828
0.316,-1.132,1.327,-44.617,-11.719,-44.922
0.366,-1.13,1.408,-54.504,-15.869,-42.053
0.413,-1.128,1.494,-66.406,-15.747,-42.542
0.457,-1.156,1.569,-78.674,-14.038,-43.274
0.504,-1.207,1.648,-88.684,-16.785,-40.222
0.552,-1.242,1.754,-95.52,-19.836,-32.593
0.626,-1.235,1.854,-106.201,-14.893,-24.475
0.724,-1.201,1.876,-126.709,-6.653,-19.287
0.814,-1.192,1.82,-143.066,-8.423,-19.531
0.897,-1.255,1.773,-151.306,-25.574,-20.63
0.983,-1.391,1.819,-154.053,-49.316,-12.695
1.034,-1.529,1.966,-152.832,-66.833,11.719
1.054,-1.568,2.148,-150.696,-68.176,52.979
1.055,-1.442,2.27,-153.198,-50.842,97.961
1.035,-1.158,2.254,-158.142,-25.452,129.028
1.009,-0.814,2.09,-167.053,-7.751,132.69
0.973,-0.557,1.859,-178.223,-10.071,108.032
0.952,-0.523,1.672,-194.824,-31.555,65.613
0.966,-0.755,1.591,-217.224,-58.105,32.288
0.973,-1.101,1.588,-225.403,-80.994,32.776
0.963,-1.336,1.645,-226.135,-102.051,67.017
0.967,-1.364,1.801,-223.145,-118.347,116.516
0.957,-1.254,2.014,-226.318,-115.356,162.842
0.9,-1.111,2.177,-234.253,-88.379,206.604
0.802,-0.898,2.209,-226.868,-50.903,254.761
0.7,-0.553,2.128,-213.44,-16.602,296.692
0.617,-0.123,2.009,-190.613,11.047,323.059
0.525,0.299,1.863,-164.734,35.034,327.576
0.454,0.64,1.673,-158.203,58.044,312.134
0.407,0.868,1.401,-156.677,74.402,282.959
0.343,0.988,1.087,-174.988,71.594,248.474
0.29,1.057,0.832,-194.519,46.997,218.872
0.25,1.104,0.69,-231.567,8.118,191.04
0.202,1.092,0.694,-282.166,-26.917,165.161
0.118,1.005,0.804,-326.111,-38.574,152.344
0.009,0.923,0.901,-351.074,-14.954,156.738
-0.054,0.999,0.887,-353.394,35.889,181.458
-0.061,1.246,0.709,-334.717,108.276,210.937
-0.106,1.575,0.32,-287.354,207.458,242.554
-0.13,2.014,-0.306,-203.247,327.698,276.55
0.021,2.546,-1.114,-108.704,444.885,292.969
0.327,2.93,-1.926,25.146,535.95,263.794
0.713,2.847,-2.889,306.946,583.191,166.931
0.983,2.27,-3.735,301.147,584.656,9.094
0.974,1.405,-3.999,316.101,411.438,-125.61
0.737,0.52,-3.999,54.626,41.931,-193.726
0.542,0.068,-3.653,-261.719,-300.476,-185.364
0.494,0.047,-2.507,-186.523,-495.544,-159.424
0.473,0.086,-1.069,-72.632,-592.712,-136.963
0.42,0.081,0.248,2.563,-589.05,-126.465
0.272,0.008,1.479,31.067,-452.271,-120.667
0.057,-0.194,2.237,58.411,-181.03,-111.938
-0.072,-0.464,1.968,129.944,113.464,-75.134
-0.07,-0.59,0.805,173.34,287.537,-17.822
-0.051,-0.503,-0.373,203.674,320.374,38.879
-0.055,-0.279,-1.139,231.445,266.602,83.801
-0.069,0.023,-1.535,254.944,173.279,107.178
-0.086,0.353,-1.643,259.338,68.726,102.905
-0.095,0.652,-1.499,254.883,-30.762,73.059
-0.079,0.852,-1.163,246.338,-112.854,26.489
-0.036,0.906,-0.731,236.023,-166.748,-26.611
0.03,0.805,-0.301,215.332,-188.171,-78.979
0.085,0.563,0.053,201.843,-180.908,-117.126
0.096,0.262,0.293,209.534,-159.79,-125.916
0.044,0.036,0.445,233.887,-138.489,-102.478
-0.01,-0.015,0.576,262.146,-118.469,-59.631
0.007,0.112,0.689,293.091,-91.614,-22.583
0.027,0.329,0.762,308.777,-59.875,-4.395
0.027,0.521,0.806,358.276,-30.396,-0.61
0.055,0.661,0.761,376.953,1.038,-8.85
0.126,0.737,0.659,357.056,22.461,-21.484
0.215,0.758,0.459,354.065,18.005,-37.537
0.289,0.76,0.221,299.072,-24.231,-50.049
0.384,0.81,0.118,268.433,-106.079,-55.969
0.537,0.971,0.219,247.314,-219.055,-65.369
0.775,1.15,0.633,224.304,-341.064,-94.116
1.033,1.215,1.379,169.556,-441.04,-145.081
1.233,1.13,2.458,132.08,-485.046,-201.477
1.444,0.927,3.513,158.691,-426.331,-249.939
1.634,0.58,3.973,167.664,-249.878,-293.579
1.719,0.035,3.962,172.546,-29.541,-315.674
1.721,-0.556,3.575,161.194,106.506,-294.861
1.643,-1.007,2.976,186.401,108.337,-245.789
1.491,-1.366,2.752,239.929,30.884,-189.575
1.298,-1.665,3.025,279.358,-37.048,-121.826
1.114,-1.781,3.47,286.682,-38.879,-39.001
0.93,-1.623,3.67,240.479,16.479,39.551
0.737,-1.219,3.455,176.392,75.928,85.205
0.578,-0.721,2.951,121.948,104.492,79.224
0.521,-0.335,2.39,80.078,110.474,21.057
0.582,-0.23,1.879,44.067,104.98,-73.364
0.67,-0.496,1.471,18.921,85.999,-170.044
0.731,-1.033,1.194,20.508,50.293,-238.647
0.785,-1.66,1.131,-11.414,2.869,-260.681
0.781,-2.219,1.299,-34.119,-32.776,-226.44
0.687,-2.546,1.474,-38.147,-36.804,-147.583
0.549,-2.54,1.505,-74.524,-18.555,-44.434
0.401,-2.2,1.42,-97.412,-8.545,49.988
0.257,-1.674,1.324,-95.459,-18.799,110.168
0.13,-1.169,1.318,-77.209,-35.095,136.353
0.024,-0.768,1.381,-65.186,-37.842,142.273
-0.066,-0.45,1.434,-68.176,-21.973,140.076
-0.119,-0.173,1.418,-75.012,4.822,132.446
-0.137,0.079,1.311,-73.547,32.227,114.563
-0.128,0.283,1.125,-61.89,52.49,82.825
-0.068,0.406,0.926,-47.729,57.8,36.865
0.036,0.405,0.777,-34.79,46.326,-17.883
0.15,0.243,0.719,-21.545,24.414,-70.129
0.251,-0.063,0.778,-3.906,3.967,-100.525
0.327,-0.406,0.894,14.16,-2.014,-100.403
0.382,-0.667,0.978,23.499,6.47,-74.036
0.419,-0.79,0.981,24.841,19.165,-33.63
0.441,-0.762,0.91,25.085,25.208,6.47
0.442,-0.625,0.825,23.132,21.24,36.865
0.415,-0.451,0.785,19.653,12.268,54.138
0.37,-0.286,0.792,23.071,4.333,59.814
0.315,-0.145,0.818,24.719,-0.793,56.946
0.267,-0.037,0.848,22.217,-3.235,46.509
0.237,0.027,0.87,11.475,-2.502,30.884
0.357,-0.979,1.265,-57.739,-20.264,-17.09
0.38,-1,1.317,-63.965,-25.269,-13.062
0.416,-1.014,1.403,-70.251,-30.823,-11.536
0.456,-1.045,1.502,-82.52,-30.579,-10.986
0.487,-1.103,1.571,-99.792,-25.696,-7.629
0.507,-1.176,1.617,-107.422,-22.644,0.427
0.52,-1.25,1.7,-107.117,-25.94,13.672
0.527,-1.306,1.855,-101.624,-29.663,33.752
0.51,-1.304,2.044,-100.769,-23.865,58.899
0.485,-1.205,2.207,-106.567,-7.751,81.238
0.487,-1.021,2.303,-118.286,9.338,88.684
0.53,-0.832,2.328,-130.493,22.949,74.707
0.621,-0.757,2.295,-146.667,31.799,43.152
0.739,-0.893,2.222,-167.297,35.828,10.315
0.844,-1.182,2.135,-179.687,35.767,-1.099
0.925,-1.44,2.053,-183.96,31.616,17.639
0.988,-1.521,2.005,-185.791,21.79,52.124
1.049,-1.42,2.003,-182.922,10.925,78.369
1.104,-1.274,1.989,-195.435,5.981,84.229
1.123,-1.213,1.907,-221.985,2.075,79.529
1.109,-1.231,1.771,-247.864,-14.709,79.468
1.082,-1.256,1.673,-274.719,-44.006,88.257
1.042,-1.234,1.689,-294.006,-75.745,107.727
0.996,-1.151,1.825,-306.641,-96.069,133.362
0.946,-1.029,2.003,-316.162,-94.421,161.865
0.862,-0.892,2.131,-318.176,-76.599,192.932
0.751,-0.737,2.193,-313.049,-50.842,230.042
0.629,-0.499,2.206,-292.786,-17.151,275.696
0.516,-0.108,2.149,-257.324,23.56,320.068
0.43,0.398,1.979,-226.196,68.604,347.351
0.364,0.903,1.676,-195.557,106.201,342.59
0.312,1.283,1.272,-187.073,123.657,305.115
0.246,1.477,0.856,-191.833,113.892,249.207
0.179,1.503,0.518,-206.238,78.674,190.125
0.133,1.426,0.318,-239.258,27.405,141.113
0.135,1.302,0.278,-286.377,-23.01,104.187
0.168,1.099,0.363,-347.595,-55.298,75.317
0.157,0.81,0.505,-389.709,-59.937,63.66
0.109,0.575,0.605,-393.433,-41.016,82.825
0.058,0.554,0.616,-369.507,-3.967,130.188
0.019,0.774,0.52,-333.801,57.556,181.702
0.022,1.149,0.261,-295.532,140.32,223.877
0.064,1.577,-0.186,-259.094,238.22,258.667
0.11,2.032,-0.784,-197.083,343.201,289.429
0.22,2.513,-1.469,-104.126,432.556,304.749
0.418,2.859,-2.045,47.119,481.506,276.062
0.659,2.816,-2.9,331.299,488.464,178.589
0.801,2.401,-3.765,220.398,450.989,32.104
0.75,1.834,-3.999,119.629,290.71,-84.229
0.617,1.264,-3.982,5.066,17.517,-153.137
0.525,0.844,-3.431,-113.403,-257.996,-177.246
0.509,0.649,-2.291,-63.843,-445.679,-180.237
0.512,0.524,-0.949,-34.119,-540.833,-188.721
0.425,0.343,0.279,109.68,-534.546,-185.242
0.204,0.086,1.368,67.078,-393.738,-166.382
-0.047,-0.196,1.998,151.794,-134.338,-121.887
-0.168,-0.341,1.524,220.337,112.244,-51.819
-0.165,-0.26,0.418,259.46,228.638,11.841
-0.161,-0.027,-0.531,272.217,221.436,53.406
-0.166,0.259,-1.036,293.335,147.4,73.853
-0.131,0.572,-1.185,306.274,53.711,68.787
-0.074,0.862,-1.052,296.204,-31.799,37.17
-0.017,1.035,-0.724,273.56,-94.238,-11.78
0.019,1.033,-0.327,253.113,-128.54,-60.852
0.029,0.9,0.026,260.254,-137.634,-95.886
0.008,0.714,0.281,273.743,-133.728,-114.685
-0.047,0.534,0.493,280.701,-127.502,-118.591
-0.079,0.406,0.715,296.387,-120.3,-115.112
-0.059,0.321,0.917,313.904,-106.14,-113.892
-0.003,0.212,1.041,325.134,-81.604,-118.408
0.053,0.038,1.032,329.468,-57.861,-120.972
0.079,-0.152,0.937,323.853,-51.941,-113.281
0.098,-0.282,0.881,311.89,-61.89,-95.276
0.129,-0.323,0.926,291.748,-72.205,-74.219
0.104,-0.261,1.038,265.991,-70.74,-52.856
0.066,-0.052,1.127,278.015,-59.998,-31.494
0.115,0.3,1.052,299.927,-57.129,-34.912
0.231,0.61,0.923,256.653,-78.003,-79.163
0.373,0.691,0.952,229.797,-124.573,-147.583
0.548,0.471,1.247,191.406,-181.396,-218.018
0.742,-0.029,1.795,141.602,-218.567,-274.353
0.867,-0.657,2.407,93.689,-198.059,-293.213
0.877,-1.175,2.85,92.529,-111.084,-251.892
0.837,-1.297,2.86,142.029,-2.625,-164.368
0.863,-0.926,2.464,187.744,54.26,-97.046
0.992,-0.427,2.064,195.129,32.41,-108.521
1.147,-0.358,2.005,163.696,-21.423,-183.899
1.213,-0.92,2.296,115.662,-44.556,-244.019
1.129,-1.723,2.644,98.145,-7.935,-215.637
0.942,-2.178,2.706,126.16,64.209,-98.694
0.785,-2.044,2.407,152.222,122.559,43.518
0.669,-1.477,1.964,164.978,131.348,136.169
0.526,-0.847,1.652,164.734,91.553,160.034
0.344,-0.393,1.591,152.71,30.823,135.132
0.178,-0.147,1.755,151.733,-19.104,81.543
0.094,-0.098,2.002,152.954,-37.659,11.902
0.088,-0.252,2.167,135.376,-24.902,-59.875
0.116,-0.588,2.162,101.563,7.507,-113.708
0.161,-0.983,1.982,75.317,40.771,-139.038
0.241,-1.308,1.722,56.824,56.03,-143.005
0.337,-1.547,1.502,37.964,53.65,-134.521
0.396,-1.737,1.353,17.578,48.279,-114.746
0.395,-1.871,1.226,-5.493,47.546,-83.435
0.347,-1.906,1.101,-27.71,42.542,-44.739
0.281,-1.814,1.011,-37.842,26.611,-8.24
0.217,-1.633,0.994,-44.128,3.967,17.578
0.157,-1.438,1.057,-58.594,-13.733,34.18
0.103,-1.267,1.15,-76.599,-18.616,48.95
0.052,-1.104,1.196,-95.032,-10.193,67.444
0.003,-0.914,1.163,-104.614,4.395,89.355
-0.042,-0.672,1.083,-96.252,13.611,108.337
-0.076,-0.388,1.014,-67.871,12.878,116.15
-0.078,-0.11,0.984,-35.095,10.193,105.408
-0.053,0.098,0.972,-10.925,13.306,75.745
-0.006,0.186,0.941,4.822,19.958,34.18
0.06,0.124,0.88,16.968,22.339,-10.254
0.122,-0.08,0.836,31.128,15.869,-44.373
0.184,-0.348,0.847,48.34,5.981,-56.458
0.237,-0.579,0.893,56.519,0.366,-47.546
0.268,-0.719,0.938,54.199,1.16,-23.804
0.381,-1.43,1.299,-49.805,-52.124,-49.683
0.455,-1.564,1.424,-64.026,-59.692,-39.551
0.54,-1.609,1.538,-76.538,-65.002,-21.606
0.641,-1.552,1.63,-90.149,-69.702,-5.127
0.752,-1.448,1.703,-100.647,-78.735,-0.916
0.862,-1.384,1.799,-116.394,-97.229,-8.484
0.966,-1.399,1.956,-122.253,-120.544,-15.747
1.074,-1.474,2.157,-131.165,-136.902,-13.184
1.17,-1.561,2.331,-141.907,-139.221,5.31
1.243,-1.604,2.43,-155.64,-132.629,35.828
1.293,-1.572,2.473,-156.189,-128.662,73.853
1.312,-1.455,2.495,-151.978,-126.16,112.549
1.335,-1.251,2.504,-152.466,-119.019,143.25
1.345,-0.979,2.46,-158.813,-105.774,162.537
1.331,-0.694,2.344,-176.514,-90.637,162.964
1.307,-0.513,2.159,-209.106,-77.576,142.395
1.242,-0.545,1.927,-247.498,-69.885,116.577
1.163,-0.735,1.728,-268.555,-75.745,109.375
1.1,-0.905,1.637,-275.146,-92.407,126.526
1.047,-0.924,1.628,-278.809,-104.126,155.396
1.004,-0.828,1.628,-290.039,-109.131,176.758
0.953,-0.767,1.632,-306.458,-114.38,191.162
0.884,-0.793,1.691,-305.42,-118.835,216.431
0.799,-0.813,1.812,-285.767,-111.511,261.169
0.711,-0.681,1.957,-250.061,-89.417,323.608
0.645,-0.297,2.059,-197.51,-55.664,386.597
0.62,0.276,2.065,-164.612,-10.925,421.204
0.594,0.864,1.931,-145.813,31.25,410.339
0.541,1.303,1.672,-165.894,54.382,350.83
0.46,1.45,1.391,-234.863,56.458,262.756
0.365,1.279,1.124,-312.012,37.598,188.049
0.246,0.953,0.946,-391.541,0.122,158.752
0.09,0.734,0.985,-438.293,-35.278,178.772
-0.034,0.809,1.227,-440.308,-37.964,229.004
-0.05,1.185,1.511,-411.682,17.151,291.016
0.016,1.74,1.5,-357.727,138.611,354.553
0.217,2.415,0.92,-281.311,301.27,426.086
0.632,3.229,-0.089,-161.316,472.229,508.24
1.275,3.834,-1.143,138.794,636.23,549.561
2.004,3.961,-2.731,550.171,806.396,452.454
2.375,3.687,-3.914,715.698,847.595,237.366
1.889,2.539,-3.999,731.323,381.226,-29.541
1.095,1.32,-3.99,-147.278,-240.295,-124.939
0.777,1.175,-3.404,-182.373,-551.758,-107.422
0.805,1.437,-2.024,-200.439,-667.236,-153.931
0.923,1.458,-0.454,-226.685,-706.543,-260.559
0.899,1.019,1.007,-180.481,-644.47,-387.268
0.628,0.085,2.219,-102.356,-448.181,-451.416
0.208,-0.995,2.777,-1.343,-142.517,-386.841
-0.084,-1.621,2.293,129.822,152.283,-212.708
-0.104,-1.469,1.056,238.098,313.538,-30.029
-0.019,-0.854,-0.168,289.001,332.886,82.764
-0.007,-0.232,-0.938,300.781,261.963,125.183
-0.057,0.279,-1.265,309.692,148.987,123.108
-0.081,0.693,-1.25,300.476,31.311,88.013
-0.049,0.969,-0.976,275.208,-62.622,26.733
-0.02,1.028,-0.571,246.643,-121.887,-45.227
-0.004,0.867,-0.139,224.976,-152.283,-106.14
0.022,0.576,0.285,228.394,-155.701,-142.883
0.05,0.279,0.607,254.578,-133.728,-153.809
0.056,0.049,0.795,250.977,-93.567,-141.968
0.043,-0.064,0.842,268.25,-53.955,-116.516
0.067,-0.016,0.741,291.504,-41.687,-97.29
0.159,0.128,0.619,300.232,-66.711,-101.807
0.274,0.169,0.734,294.556,-112.244,-127.38
0.366,-0.003,1.013,314.27,-138.733,-153.137
0.4,-0.296,1.333,235.718,-122.925,-150.635
0.328,-0.51,1.613,232.605,-66.406,-107.178
0.211,-0.384,1.591,274.658,1.282,-41.199
0.201,0.178,1.299,325.012,15.991,0.549
0.378,0.907,1.087,326.233,-56.702,-35.278
0.762,1.352,1.305,267.517,-180.908,-164.734
1.292,1.067,2.036,145.264,-274.353,-350.525
1.698,-0.1,3.019,31.433,-256.958,-504.639
1.749,-1.675,3.696,12.695,-115.112,-517.7
1.494,-2.858,3.662,41.504,84.473,-353.394
1.174,-3.046,2.913,59.875,228.577,-99.609
0.976,-2.277,2.025,61.646,239.319,103.21
0.878,-1.184,1.572,104.797,148.132,172.302
0.853,-0.347,1.646,134.521,36.621,114.868
0.904,-0.063,2.047,141.479,-28.137,-26.672
0.965,-0.557,2.437,99.792,-19.165,-183.533
0.954,-1.698,2.561,42.908,42.114,-263.855
0.863,-2.823,2.324,-1.892,110.901,-222.595
0.768,-3.316,1.845,-44.434,154.114,-95.703
0.717,-3.042,1.311,-56.458,156.25,33.752
0.701,-2.318,0.896,-45.959,127.441,99.06
0.682,-1.609,0.654,-35.4,93.445,96.008
0.637,-1.168,0.521,-46.326,67.261,51.88
0.567,-1.026,0.455,-66.589,44.434,-5.432
0.497,-1.146,0.455,-72.327,21.484,-51.27
0.406,-1.433,0.508,-53.772,-2.075,-61.462
0.287,-1.669,0.582,11.475,-25.391,-27.1
0.172,-1.66,0.646,82.458,-41.809,34.729
0.052,-1.395,0.709,107.849,-47.852,94.849
-0.09,-1.008,0.807,131.348,-49.255,133.179
-0.215,-0.622,0.92,173.096,-49.011,147.522
-0.29,-0.27,1.009,202.087,-40.771,138.916
-0.313,0.025,1.045,202.576,-20.508,107.178
-0.292,0.213,1.007,181.885,1.343,54.382
-0.245,0.239,0.932,158.081,10.62,-10.132
-0.167,0.083,0.874,126.282,7.385,-71.045
-0.074,-0.221,0.902,63.354,3.235,-111.145
0.017,-0.576,1.009,9.155,9.766,-120.85
0.102,-0.87,1.055,-14.526,22.888,-104.797
0.165,-1.049,1.004,-31.128,30.151,-75.256
0.192,-1.121,0.931,-37.781,27.1,-41.016
0.201,-1.096,0.882,-42.053,17.883,-7.507
0.192,-0.987,0.889,-58.044,9.338,21.851
0.163,-0.812,0.933,-62.439,5.798,43.152
0.127,-0.61,0.956,-58.044,7.568,50.781
0.095,-0.444,0.951,-50.293,9.827,44.434
0.082,-0.349,0.933,-31.189,10.254,29.724
0.07,-0.323,0.915,-11.292,6.287,13.55
0.066,-0.336,0.92,4.944,1.709,0.244
0.084,-0.362,0.93,8.24,4.272,-9.399
0.106,-0.393,0.901,4.395,10.01,-15.076
0.123,-0.429,0.846,4.395,10.742,-17.029
0.139,-0.46,0.817,5.554,7.141,-15.625
0.152,-0.48,0.821,4.822,4.822,-12.573
0.59,0.184,1.965,-94.788,-2.991,-27.649
0.638,0.186,2.049,-114.807,-8.545,-18.005
0.667,0.21,2.092,-133.057,-15.991,-6.531
0.672,0.261,2.152,-149.78,-26.489,8.972
0.674,0.356,2.177,-159.729,-26.55,23.56
0.709,0.468,2.034,-164.429,-29.48,34.668
0.782,0.59,1.889,-177.551,-58.777,38.635
0.881,0.679,1.993,-194.58,-93.933,33.875
1.001,0.669,2.213,-198.181,-104.675,30.151
1.144,0.549,2.319,-191.772,-100.342,36.377
1.314,0.325,2.311,-184.57,-88.745,50.598
1.42,0.113,2.23,-176.514,-81.177,86.243
1.455,0.097,2.264,-200.073,-92.407,134.827
1.459,0.204,2.417,-218.75,-78.308,169.434
1.427,0.315,2.326,-214.355,-36.743,191.223
1.382,0.42,2.053,-213.623,-26.184,202.637
1.306,0.42,1.944,-218.872,-32.898,210.876
1.221,0.362,1.958,-219.482,-21.301,225.22
1.134,0.367,1.97,-219.177,1.038,241.943
1.041,0.453,1.861,-215.027,38.635,250.549
0.917,0.573,1.547,-205.017,68.726,244.507
0.805,0.615,1.252,-200.195,70.313,235.168
0.736,0.658,1.191,-198.242,58.35,238.464
0.663,0.745,1.256,-200.684,54.932,241.333
0.6,0.795,1.249,-205.994,61.218,240.784
0.536,0.805,1.126,-216.919,66.772,239.99
0.48,0.829,0.929,-230.713,67.2,243.225
0.45,0.878,0.804,-243.469,55.542,245.3
0.412,0.906,0.807,-256.042,56.091,249.451
0.365,1.018,0.749,-264.099,78.247,263.855
0.284,1.254,0.606,-268.494,104.797,271.118
0.118,1.458,0.455,-270.569,145.386,265.686
-0.042,1.569,0.214,-270.325,215.881,250.793
-0.148,1.617,-0.241,-269.836,310.791,223.267
-0.202,1.625,-1.04,-275.024,418.945,195.923
-0.182,1.634,-2.407,-246.948,515.381,179.077
-0.24,1.514,-3.633,-174.072,521.912,153.259
-0.526,1.033,-3.998,-80.383,434.387,96.619
-0.87,0.264,-3.999,29.602,293.823,37.231
-1.079,-0.249,-3.999,87.402,87.463,23.743
-1.128,-0.12,-3.83,108.521,-81.421,31.25
-1.007,0.287,-3.067,128.418,-174.988,12.207
-0.806,0.536,-1.935,149.109,-224.487,-20.691
-0.615,0.611,-0.97,168.03,-231.018,-50.537
-0.458,0.578,-0.288,187.561,-194.702,-79.529
-0.358,0.473,0.073,202.82,-138.489,-100.403
-0.3,0.355,0.207,207.886,-80.872,-109.619
-0.283,0.234,0.117,217.407,-25.757,-114.685
-0.301,0.179,-0.144,229.431,2.075,-110.779
-0.306,0.219,-0.397,241.089,0.977,-108.032
-0.288,0.26,-0.578,252.563,-21.179,-106.018
-0.254,0.329,-0.684,254.028,-62.256,-97.595
-0.186,0.464,-0.656,236.267,-115.601,-94.36
-0.083,0.577,-0.433,211.243,-164.001,-100.403
0.016,0.62,-0.111,195.129,-186.707,-110.413
0.104,0.673,0.138,192.444,-188.599,-120.911
0.211,0.735,0.352,197.754,-185.669,-143.86
0.338,0.642,0.617,206.36,-173.828,-174.622
0.445,0.381,0.785,213.684,-146.667,-185.913
0.491,0.177,0.724,214.6,-125.366,-167.48
0.474,0.207,0.533,206.726,-125.671,-143.127
0.455,0.526,0.498,195.19,-148.376,-130.676
0.539,0.814,0.791,191.956,-162.72,-153.442
0.708,0.68,1.267,200.073,-141.968,-197.632
0.818,0.23,1.637,213.196,-81.787,-212.219
0.776,-0.121,1.47,226.624,-3.723,-179.382
0.603,0.075,0.863,225.159,14.954,-128.784
0.375,0.792,0.683,211.426,-29.663,-104.797
0.194,1.459,0.881,214.417,-49.683,-123.84
0.213,1.655,0.814,231.873,-66.345,-172.424
0.474,1.395,0.918,239.38,-114.929,-224.304
0.834,0.901,1.523,238.892,-124.878,-244.141
1.104,0.34,2.03,236.877,-74.951,-232.3
1.131,-0.003,1.931,228.516,-3.357,-171.204
0.953,0.319,1.33,207.825,26.611,-82.275
0.777,1.205,0.772,176.208,-8.667,-37.415
0.701,2.149,0.819,161.377,-83.923,-59.814
0.755,2.813,1.475,176.697,-131.287,-125.977
1.011,2.748,2.073,210.571,-119.507,-229.065
1.306,1.857,2.347,232.483,-94.421,-294.006
1.449,0.955,2.604,228.882,-61.584,-265.564
1.445,0.543,2.824,219.971,-6.653,-200.073
1.317,0.422,2.836,193.787,39.978,-131.042
1.113,0.464,2.662,167.358,72.693,-58.105
0.936,0.744,2.274,141.663,88.867,-9.094
0.795,1.075,1.899,124.756,65.125,-9.888
0.671,1.127,1.735,117.493,32.837,-42.297
0.633,0.858,1.6,113.831,3.662,-85.51
0.688,0.435,1.519,102.6,-37.17,-110.901
0.815,0.101,1.662,77.942,-77.698,-113.159
0.972,-0.141,1.972,50.11,-93.506,-105.225
1.092,-0.44,2.244,29.48,-78.064,-82.642
1.108,-0.665,2.338,17.273,-44.25,-25.391
1.011,-0.574,2.311,7.874,-8.545,35.461
0.815,-0.259,2.201,5.859,38.94,72.388
0.583,0.091,1.916,8.911,85.022,91.492
0.375,0.378,1.522,5.981,106.445,101.013
0.187,0.635,1.195,-3.662,103.943,108.154
0.046,0.898,0.942,-9.338,95.276,95.032
-0.029,1.034,0.702,-11.658,77.454,62.5
-0.031,1.031,0.543,-15.015,48.523,29.175
0.017,0.962,0.514,-18.066,19.409,-4.761
0.094,0.746,0.557,-21.301,1.648,-17.822
0.195,0.626,0.627,-28.564,-7.812,-2.258
0.294,0.651,0.697,-26.367,-6.409,-12.146
0.363,0.503,0.696,-19.958,1.892,-18.616
0.402,0.357,0.691,-24.109,1.282,4.15
0.411,0.385,0.732,-28.32,4.822,28.381
0.389,0.468,0.753,-29.297,9.827,41.199
0.349,0.559,0.774,-26.978,14.038,46.021
0.306,0.651,0.79,-22.034,19.836,41.26
0.273,0.687,0.776,-17.7,24.292,30.029
0.254,0.651,0.732,-14.526,26.611,22.339
0.245,0.611,0.683,-15.686,24.292,20.325
0.248,0.597,0.66,-16.785,21.423,16.907
0.253,0.566,0.649,-15.686,19.714,14.221
0.255,0.536,0.645,-15.198,16.724,16.479
0.248,0.535,0.65,-14.465,13.55,21.301
0.234,0.561,0.667,-14.221,9.949,25.024
0.218,0.583,0.695,-11.169,9.094,24.841
0.727,0.245,1.746,-83.13,-59.082,47.974
0.757,0.275,1.797,-90.454,-42.114,54.626
0.785,0.322,1.845,-96.741,-26.367,62.5
0.817,0.372,1.85,-101.501,-9.277,67.017
0.837,0.43,1.862,-109.07,3.418,70.129
0.842,0.492,1.929,-114.136,21.057,70.435
0.832,0.538,1.982,-118.103,41.504,72.571
0.801,0.582,1.96,-121.887,58.838,78.369
0.741,0.67,1.899,-132.446,61.462,86.609
0.686,0.796,1.875,-148.071,51.453,87.769
0.681,0.839,1.902,-164.307,35.828,80.994
0.726,0.762,1.977,-178.04,23.315,76.965
0.787,0.663,2.022,-184.998,21.423,81.421
0.835,0.617,2.022,-189.636,18.982,91.431
0.863,0.593,2.074,-195.312,19.47,100.22
0.875,0.563,2.096,-193.604,35.522,108.765
0.869,0.522,2.014,-190.43,48.157,118.469
0.82,0.523,1.933,-198.303,55.054,127.258
0.729,0.6,1.776,-204.346,60.974,129.639
0.635,0.646,1.567,-215.027,43.213,124.573
0.58,0.578,1.519,-230.164,16.541,118.958
0.565,0.405,1.574,-240.784,3.357,121.643
0.555,0.247,1.573,-251.709,0.061,136.719
0.513,0.285,1.534,-260.254,0.183,154.236
0.431,0.429,1.546,-266.663,4.456,156.006
0.362,0.471,1.512,-268.433,23.193,151.367
0.325,0.473,1.363,-270.935,35.767,154.236
0.27,0.554,1.265,-276.489,39.001,158.325
0.197,0.668,1.189,-277.649,50.659,155.334
0.131,0.753,1.014,-277.832,57.251,149.048
0.068,0.798,0.825,-286.438,50.659,140.747
0.039,0.802,0.613,-290.283,39.795,134.46
0.055,0.746,0.432,-297.791,9.827,130.249
0.092,0.638,0.391,-306.885,-22.339,132.141
0.149,0.558,0.448,-314.392,-44.8,140.503
0.21,0.507,0.548,-317.139,-51.941,149.109
0.256,0.471,0.676,-320.74,-44.861,164.368
0.275,0.507,0.793,-325.623,-15.93,181.213
0.254,0.631,0.851,-336.304,33.691,191.833
0.19,0.814,0.767,-353.638,108.398,190.674
0.065,1.122,0.395,-386.963,193.726,182.434
-0.121,1.529,-0.327,-428.772,273.437,157.104
-0.32,1.836,-1.401,-451.294,330.75,115.845
-0.493,1.788,-2.795,-411.133,337.952,73.181
-0.62,1.177,-3.782,-301.147,260.01,50.293
-0.746,0.411,-3.999,-206.848,101.746,55.298
-0.916,0.2,-3.968,-92.163,-5.554,81.787
-1.061,0.536,-3.609,34.18,-37.903,77.148
-1.112,0.789,-2.864,118.042,-64.636,37.72
-1.077,0.732,-2.076,157.532,-86.67,9.521
-0.965,0.638,-1.484,173.157,-96.191,-2.197
-0.791,0.552,-1.055,178.284,-104.309,-24.475
-0.619,0.367,-0.617,182.434,-98.816,-49.622
-0.515,0.174,-0.227,194.397,-66.406,-59.082
-0.48,0.093,-0.055,208.374,-18.616,-58.838
-0.478,0.124,-0.132,217.285,20.386,-58.594
-0.495,0.195,-0.339,219.421,35.828,-61.157
-0.513,0.269,-0.531,219.36,30.09,-65.43
-0.519,0.362,-0.649,223.938,13.794,-71.411
-0.491,0.457,-0.715,234.68,-5.981,-84.167
-0.419,0.504,-0.755,248.596,-29.48,-99.792
-0.303,0.505,-0.717,258.484,-59.814,-114.624
-0.175,0.503,-0.54,262.756,-89.783,-126.953
-0.085,0.551,-0.252,264.343,-107.544,-131.775
-0.019,0.641,0.048,271.79,-107.666,-140.808
0.081,0.62,0.264,280.212,-92.041,-156.372
0.16,0.492,0.391,287.72,-72.449,-158.142
0.189,0.47,0.524,291.992,-56.702,-140.076
0.235,0.511,0.649,294.495,-35.583,-133.057
0.276,0.497,0.706,306.152,-15.198,-134.827
0.262,0.473,0.586,338.928,11.475,-143.982
0.234,0.502,0.252,344.055,-2.136,-131.775
0.317,0.708,0.074,315.552,-71.472,-118.652
0.526,0.913,0.302,289.368,-150.696,-131.287
0.715,1.006,1.013,260.376,-213.379,-137.329
0.779,1.11,2.212,238.281,-213.684,-137.634
0.815,1.074,3.213,278.931,-70.557,-158.447
0.917,0.758,3.125,360.779,130.249,-173.34
0.993,0.328,2.083,391.541,220.276,-154.053
0.937,0.157,0.984,352.112,175.293,-94.849
0.823,0.419,0.377,291.931,64.758,-28.076
0.758,0.978,0.253,254.517,-46.57,2.319
0.778,1.645,0.463,248.047,-141.968,-6.348
0.868,2.299,1.193,249.146,-233.643,-41.748
0.978,2.673,2.562,263.916,-262.695,-109.131
1.118,2.398,3.687,315.063,-161.133,-192.139
1.242,1.534,3.993,374.39,13.611,-221.985
1.236,0.683,3.753,394.775,143.616,-171.143
1.04,0.374,3.266,363.037,180.969,-72.449
0.723,0.669,2.91,303.467,165.71,10.376
0.396,1.175,2.583,252.197,145.386,29.358
0.175,1.472,1.999,217.529,106.323,2.93
0.19,1.433,1.462,178.406,13.916,-50.11
0.435,1.084,1.441,133.85,-91.064,-108.887
0.816,0.557,1.85,102.417,-148.315,-153.931
1.209,-0.072,2.258,70.923,-153.32,-175.354
1.451,-0.694,2.446,30.823,-128.54,-144.836
1.496,-1.019,2.44,0.366,-90.332,-75.256
1.405,-0.947,2.276,-15.137,-43.884,-0.244
1.204,-0.697,2,-18.677,-2.014,59.387
0.939,-0.389,1.737,-17.761,26.245,106.323
0.643,-0.054,1.557,-8.728,52.307,132.446
0.314,0.248,1.368,4.333,79.468,141.479
-0.001,0.586,1.151,10.498,92.041,140.381
-0.255,0.925,0.97,12.39,88.989,118.835
-0.443,1.12,0.805,10.437,75.562,82.886
-0.521,1.155,0.645,5.371,49.5,47.485
-0.464,1.084,0.562,-1.16,11.475,13.306
-0.313,0.933,0.632,-5.737,-23.437,-16.235
-0.135,0.729,0.813,-5.981,-41.077,-33.63
0.039,0.542,0.991,-3.296,-39.673,-35.217
0.204,0.398,1.114,0.366,-28.503,-28.87
0.328,0.268,1.185,2.075,-11.719,-15.503
0.395,0.194,1.189,2.808,10.559,4.7
0.411,0.216,1.108,2.258,29.419,24.048
0.38,0.304,0.991,0.305,38.574,37.231
0.313,0.413,0.902,-2.075,41.077,43.579
0.239,0.52,0.833,-3.052,42.236,44.312
0.182,0.608,0.753,-5.066,38.025,38.879
0.15,0.654,0.708,-9.521,26.733,30.212
0.87,0.138,1.805,-117.92,-6.165,57.495
0.896,0.184,1.819,-117.188,7.507,58.411
0.935,0.195,1.772,-118.896,16.846,56.58
0.967,0.19,1.712,-123.413,20.142,55.054
0.983,0.233,1.674,-128.479,14.587,57.251
0.999,0.331,1.687,-137.756,-3.296,55.298
1.053,0.339,1.787,-149.536,-27.527,47.18
1.159,0.16,1.994,-161.377,-43.03,46.997
1.286,-0.101,2.214,-170.166,-34.241,66.772
1.371,-0.27,2.315,-175.537,-7.324,102.295
1.34,-0.257,2.241,-180.969,22.4,143.616
1.199,-0.045,1.951,-183.533,38.757,183.289
1.049,0.215,1.556,-190.979,19.775,205.933
0.978,0.297,1.369,-207.214,-26.917,210.815
1.005,0.203,1.455,-213.44,-64.026,220.764
1.096,0.128,1.708,-219.238,-82.947,238.037
1.194,0.069,2.086,-230.164,-76.66,248.901
1.285,-0.041,2.387,-235.229,-32.349,268.494
1.364,-0.051,2.502,-238.159,26.978,299.194
1.369,0.119,2.513,-234.863,97.29,326.355
1.32,0.406,2.343,-222.229,176.941,341.187
1.228,0.684,1.964,-214.111,240.051,331.97
1.059,0.858,1.536,-217.896,278.992,332.947
0.856,1.099,1.124,-222.656,300.964,337.585
0.682,1.372,0.749,-216.797,307.8,318.298
0.52,1.47,0.387,-212.891,301.086,287.476
0.356,1.452,0.056,-231.384,261.047,256.592
0.238,1.421,-0.024,-259.277,203.491,227.844
0.174,1.415,0.161,-285.278,166.87,194.58
0.14,1.375,0.29,-306.03,164.124,160.583
0.116,1.356,0.193,-339.294,167.114,142.029
0.081,1.448,0.03,-386.719,164.795,125.183
0.031,1.548,-0.154,-425.476,178.833,107.361
0.019,1.606,-0.519,-448.059,210.205,97.107
-0.01,1.629,-1.228,-437.622,252.747,100.769
-0.083,1.5,-2.37,-397.461,293.274,106.689
-0.182,1.254,-3.513,-330.383,280.396,120.117
-0.356,1.073,-3.989,-249.695,184.387,134.399
-0.601,1.036,-3.999,-135.925,63.11,141.846
-0.806,1.203,-3.95,-8.057,-25.879,127.441
-0.877,1.445,-3.449,114.929,-72.327,77.393
-0.813,1.498,-2.565,209.29,-81.299,-1.709
-0.643,1.229,-1.871,252.869,-84.778,-77.454
-0.472,0.836,-1.39,245.911,-104.309,-107.361
-0.342,0.598,-0.974,216.309,-122.864,-110.291
-0.228,0.441,-0.637,187.5,-126.892,-116.333
-0.168,0.229,-0.385,173.828,-116.76,-112.793
-0.162,0.1,-0.253,175.598,-94.788,-96.375
-0.187,0.115,-0.227,183.716,-73.12,-89.844
-0.254,0.175,-0.269,204.224,-45.227,-84.412
-0.326,0.292,-0.435,229.797,-26.733,-79.956
-0.368,0.447,-0.648,247.986,-33.63,-82.52
-0.377,0.636,-0.755,254.456,-63.721,-92.957
-0.342,0.825,-0.641,259.216,-102.417,-114.807
-0.283,0.944,-0.331,267.212,-129.883,-143.555
-0.199,0.988,0.045,274.658,-137.512,-170.288
-0.057,0.915,0.351,282.898,-124.756,-201.233
0.089,0.673,0.493,296.021,-99.121,-223.083
0.213,0.351,0.488,303.65,-76.477,-220.52
0.325,0.078,0.42,303.406,-65.125,-200.439
0.384,-0.071,0.353,296.631,-62.866,-167.053
0.368,0.012,0.386,288.757,-68.665,-126.099
0.269,0.33,0.595,294.373,-66.223,-97.534
0.13,0.668,0.746,324.28,-35.95,-95.337
0.052,0.906,0.61,353.088,-19.409,-108.398
0.081,1.125,0.51,359.07,-54.993,-131.531
0.225,1.291,0.834,353.21,-105.408,-170.898
0.507,1.186,1.432,351.624,-130.676,-217.285
0.797,0.714,2.027,349.67,-122.742,-245.178
0.875,0.111,2.349,344.421,-66.284,-220.825
0.793,-0.128,2.178,332.458,-1.343,-130.92
0.682,0.188,1.721,312.622,15.747,-53.894
0.546,0.668,1.309,292.786,-12.207,-29.48
0.387,1.112,1.115,271.484,-68.97,-28.198
0.327,1.673,1.233,251.526,-141.968,-38.757
0.523,2.149,1.701,231.384,-208.801,-109.924
0.849,1.949,2.365,250.549,-227.417,-207.458
1.083,1.188,2.929,276.001,-194.092,-241.699
1.194,0.567,3.246,288.33,-122.009,-202.393
1.214,0.272,3.219,292.114,-27.771,-139.404
1.167,0.22,2.846,288.452,44.25,-77.332
1.066,0.347,2.343,276.611,78.796,-28.442
0.922,0.563,1.865,264.587,85.815,9.644
0.798,0.802,1.457,253.601,66.895,30.151
0.694,0.959,1.189,241.821,22.949,27.588
0.596,0.995,1.195,229.431,-32.471,14.893
0.514,0.987,1.511,211.731,-75.684,2.258
0.435,0.996,1.93,186.829,-87.158,-9.033
0.386,0.946,2.174,164.246,-73.12,-26.733
0.393,0.781,2.21,140.93,-54.688,-41.992
0.437,0.577,2.16,117.615,-35.278,-47.913
0.493,0.384,2.044,96.375,-14.771,-46.692
0.517,0.226,1.876,73.486,-0.854,-34.363
0.506,0.148,1.708,48.584,5.676,-14.709
0.471,0.15,1.588,26.428,9.216,3.601
0.417,0.196,1.507,11.902,17.517,17.212
0.349,0.261,1.401,2.136,27.527,27.344
0.278,0.346,1.269,-5.676,32.288,34.912
0.209,0.433,1.151,-12.085,32.654,37.964
0.152,0.5,1.049,-17.456,30.334,38.513
0.108,0.572,0.966,-24.597,22.888,37.598
0.088,0.674,0.916,-34.546,8.301,28.992
0.08,0.738,0.922,-45.837,-6.836,6.592
0.073,0.671,0.962,-53.589,-11.658,-11.597
0.09,0.582,0.977,-57.739,-11.597,-9.277
0.12,0.581,0.992,-60.12,-12.817,-2.747
0.158,0.589,1.007,-54.749,-7.446,-1.953
0.206,0.549,0.974,-45.593,-0.977,-3.235
0.251,0.479,0.93,-35.583,3.601,0.305
0.287,0.443,0.912,-26.611,8.057,6.775
0.31,0.433,0.902,-21.057,13.306,10.681
0.312,0.424,0.876,-17.883,18.25,16.418
0.292,0.447,0.838,-17.151,20.264,24.414
0.264,0.506,0.804,-15.991,21.057,28.931
0.237,0.561,0.778,-14.587,20.508,26.123
0.203,0.57,0.75,-14.404,18.188,22.034
0.172,0.569,0.723,-15.076,12.329,22.522
0.153,0.594,0.723,-15.32,6.592,20.691
0.138,0.597,0.741,-16.602,2.93,16.418
0.134,0.588,0.755,-20.203,3.113,15.015
0.747,0.27,1.613,-133.057,-44.128,4.15
0.79,0.245,1.629,-146.973,-43.396,10.437
0.833,0.225,1.665,-156.372,-44.617,19.592
0.865,0.229,1.751,-160.278,-39.246,28.442
0.884,0.241,1.805,-160.4,-25.208,37.048
0.898,0.262,1.785,-163.208,-16.296,46.509
0.912,0.283,1.765,-169.312,-18.25,55.054
0.926,0.281,1.801,-175.171,-23.132,63.354
0.947,0.263,1.877,-180.298,-26.001,74.341
0.966,0.248,1.972,-182.922,-25.146,86.853
0.978,0.24,2.079,-182.861,-18.311,99.121
1.007,0.214,2.165,-181.641,-5.005,108.582
1.05,0.156,2.201,-180.054,10.376,120.3
1.075,0.138,2.225,-179.687,23.071,138.977
1.069,0.208,2.276,-179.932,35.767,157.471
1.049,0.307,2.294,-176.514,56.702,167.297
1.016,0.367,2.209,-170.837,75.439,169.434
0.967,0.389,2.068,-171.509,82.214,172.485
0.937,0.414,1.945,-175.659,78.369,176.88
0.918,0.42,1.866,-189.453,70.251,175.415
0.882,0.402,1.821,-208.374,64.209,177.002
0.851,0.408,1.808,-225.281,61.584,185.425
0.823,0.449,1.81,-234.009,69.885,193.481
0.786,0.511,1.752,-234.375,89.111,200.989
0.75,0.588,1.609,-233.215,105.896,207.336
0.695,0.679,1.461,-234.558,114.685,209.595
0.618,0.795,1.351,-233.643,122.803,211.426
0.553,0.918,1.224,-227.539,133.728,203.003
0.482,0.962,1.044,-227.295,139.404,188.843
0.41,0.97,0.849,-228.577,136.23,182.129
0.365,1.01,0.667,-227.539,126.221,174.5
0.34,1.001,0.517,-225.586,108.887,160.278
0.317,0.899,0.426,-221.375,88.989,153.015
0.308,0.785,0.394,-218.14,69.397,165.833
0.35,0.764,0.407,-224.426,49.5,185.059
0.426,0.802,0.438,-248.84,25.696,186.523
0.472,0.787,0.541,-277.039,6.348,178.955
0.457,0.741,0.712,-297.791,13.611,179.016
0.397,0.743,0.804,-303.955,54.138,188.477
0.305,0.815,0.648,-301.514,112.244,199.402
0.197,0.911,0.231,-311.829,150.574,197.632
0.032,0.975,-0.198,-332.153,166.077,191.284
-0.216,1.095,-0.601,-347.29,193.909,193.298
-0.509,1.357,-1.177,-354.98,235.168,194.275
-0.788,1.669,-1.929,-351.44,267.578,173.584
-1.021,1.877,-2.733,-324.951,279.724,123.413
-1.226,1.767,-3.487,-260.986,266.357,53.833
-1.387,1.196,-3.918,-158.508,221.252,-2.258
-1.43,0.433,-3.999,-38.269,134.766,-24.902
-1.313,0.044,-3.954,62.378,-2.38,-14.404
-1.131,0.279,-3.29,127.625,-121.704,-14.343
-0.98,0.708,-2.078,175.049,-157.41,-52.795
-0.815,0.827,-1.175,194.885,-145.386,-96.558
-0.606,0.657,-0.676,187.5,-137.024,-120.667
-0.403,0.432,-0.271,165.649,-138.245,-131.775
-0.271,0.234,0.163,156.433,-117.432,-139.526
-0.224,0.057,0.481,172.119,-59.143,-140.686
-0.218,-0.07,0.511,203.247,17.639,-134.094
-0.231,-0.131,0.243,230.53,76.111,-122.864
-0.265,-0.128,-0.158,246.521,98.022,-110.352
-0.319,-0.029,-0.517,253.906,89.722,-95.032
-0.356,0.162,-0.745,256.653,58.411,-85.693
-0.366,0.343,-0.827,256.958,15.869,-88.379
-0.358,0.508,-0.787,254.028,-31.067,-92.773
-0.299,0.678,-0.583,248.718,-74.646,-107.178
-0.194,0.701,-0.304,247.62,-96.741,-130.249
-0.066,0.536,-0.095,243.286,-105.286,-143.738
0.061,0.339,0.07,243.896,-104.187,-146.545
0.144,0.198,0.231,258.362,-89.661,-142.456
0.179,0.145,0.358,286.804,-59.204,-132.996
0.2,0.159,0.397,321.533,-24.841,-121.643
0.223,0.153,0.34,350.525,3.601,-110.596
0.223,0.162,0.226,361.511,17.944,-90.088
0.205,0.236,0.043,360.352,19.226,-68.542
0.161,0.432,-0.178,346.924,-5.981,-42.847
0.069,0.883,-0.2,324.646,-57.19,-21.729
-0.017,1.506,0.093,317.81,-97.412,-31.494
0.033,1.962,0.444,342.957,-103.943,-87.952
0.266,2.039,0.678,379.211,-116.272,-160.706
0.559,1.823,1.016,377.197,-159.668,-216.98
0.789,1.479,1.578,343.201,-192.2,-240.295
0.922,1.102,2.155,311.646,-174.377,-232.056
0.932,0.721,2.391,305.725,-98.755,-197.388
0.803,0.545,2.022,310.12,-16.907,-132.263
0.672,0.752,1.29,285.767,-7.141,-42.175
0.722,1.355,0.837,235.718,-83.557,33.936
0.951,2.255,1.083,201.05,-182.373,28.992
1.241,2.952,1.784,198.303,-236.694,-93.689
1.576,2.938,2.429,197.205,-244.934,-270.02
1.663,1.857,2.956,202.026,-231.934,-366.272
1.584,0.697,3.374,210.388,-212.28,-262.085
1.634,0.604,3.653,178.65,-171.692,-164.795
1.667,0.788,3.848,160.889,-109.619,-182.8
1.436,0.149,3.927,200.989,-2.075,-169.556
1.16,-0.35,3.561,204.59,126.16,-35.339
1.055,0.169,2.725,190.125,172.668,44.739
0.908,0.673,1.969,174.072,143.066,23.071
0.749,0.676,1.522,149.841,86.792,-23.132
0.655,0.474,1.289,126.221,32.227,-47.852
0.641,0.295,1.231,100.22,-26.001,-57.922
0.678,0.168,1.446,69.885,-78.796,-57.8
0.723,0.062,1.823,48.95,-91.675,-57.129
0.738,-0.064,2.061,35.522,-66.04,-49.5
0.726,-0.16,2.066,22.278,-32.593,-30.701
0.664,-0.182,1.946,9.644,-5.676,-5.737
0.559,-0.125,1.779,-1.099,16.235,23.621
0.442,0.009,1.594,-10.376,32.166,48.34
0.308,0.19,1.424,-17.578,41.443,63.904
0.181,0.378,1.285,-21.057,46.143,67.993
0.076,0.535,1.142,-21.545,46.753,58.777
-0.005,0.644,0.982,-22.827,37.964,39.368
-0.056,0.696,0.845,-23.315,21.362,18.25
-0.061,0.708,0.759,-24.78,0.183,0.305
-0.01,0.669,0.766,-27.954,-24.292,-17.334
0.073,0.562,0.875,-28.015,-37.415,-28.809
0.175,0.444,0.985,-22.461,-36.316,-29.663
0.276,0.35,1.054,-16.602,-29.724,-26.245
0.348,0.268,1.094,-12.024,-17.7,-19.47
0.394,0.219,1.089,-8.423,-2.563,-6.287
0.408,0.239,1.057,-5.859,10.681,7.874
0.861,0.08,2.07,-99.854,-27.405,23.56
0.934,0.129,2.229,-107.971,-14.16,31.799
1.005,0.178,2.325,-114.502,0.977,38.391
1.075,0.193,2.39,-122.864,10.681,45.654
1.152,0.154,2.468,-131.775,19.836,57.495
1.22,0.088,2.499,-142.822,33.081,75.928
1.24,0.077,2.456,-160.156,40.222,104.736
1.224,0.193,2.432,-179.321,37.109,138.062
1.213,0.373,2.469,-192.383,35.339,159.668
1.199,0.509,2.522,-195.312,40.344,169.739
1.182,0.558,2.535,-192.566,53.528,175.537
1.164,0.533,2.422,-190.43,70.984,176.086
1.121,0.499,2.226,-198.181,70.679,180.42
1.078,0.531,2.125,-213.501,52.856,190.308
1.041,0.597,2.172,-229.065,36.255,196.655
0.992,0.625,2.233,-241.943,35.583,202.087
0.972,0.625,2.209,-250.61,41.992,213.135
0.982,0.628,2.154,-261.963,49.744,221.069
0.996,0.669,2.047,-284.912,62.744,217.285
0.949,0.675,1.905,-312.683,67.993,205.383
0.837,0.663,1.843,-320.679,78.735,219.666
0.743,0.801,1.718,-316.345,113.892,245.911
0.661,1.064,1.403,-311.035,141.907,256.47
0.564,1.282,1.075,-311.096,147.522,245.85
0.453,1.38,0.833,-305.237,146.912,227.539
0.355,1.401,0.589,-297.302,145.508,209.534
0.281,1.399,0.329,-296.082,131.653,189.758
0.25,1.388,0.144,-295.898,106.445,168.762
0.21,1.31,0.093,-290.039,81.299,149.841
0.136,1.121,0.063,-289.307,61.768,152.832
0.142,1.005,0.019,-303.406,37.781,177.673
0.165,1.046,0.039,-317.383,20.386,182.495
0.114,1.086,0.072,-324.341,19.165,173.767
0.022,1.069,0.081,-327.209,32.959,166.565
-0.079,1.057,0.039,-323.486,65.308,166.87
-0.181,1.107,-0.106,-315.308,108.643,171.204
-0.325,1.181,-0.424,-314.27,153.32,169.312
-0.5,1.225,-0.97,-311.768,191.284,161.987
-0.709,1.193,-1.698,-303.101,213.196,148.01
-0.931,1.103,-2.453,-267.822,211.243,135.071
-1.117,1.057,-3.052,-208.679,178.894,125.183
-1.274,1.106,-3.366,-140.869,123.718,108.582
-1.336,1.173,-3.332,-59.021,64.209,72.998
-1.29,1.156,-3.01,29.907,20.874,15.747
-1.169,0.997,-2.53,111.511,0,-41.87
-1.013,0.778,-2.098,174.255,-1.77,-73.059
-0.847,0.699,-1.83,195.557,-26.55,-79.956
-0.693,0.762,-1.469,188.416,-73.242,-91.064
-0.58,0.74,-0.922,193.359,-92.285,-114.197
-0.483,0.584,-0.479,216.248,-70.19,-131.775
-0.396,0.454,-0.314,240.479,-33.203,-137.817
-0.329,0.406,-0.353,257.874,-10.742,-138.367
-0.301,0.398,-0.423,269.592,-5.371,-135.254
-0.3,0.46,-0.471,286.377,-6.47,-126.038
-0.306,0.645,-0.516,303.223,-19.226,-119.385
-0.303,0.883,-0.525,314.331,-45.349,-129.211
-0.25,1.056,-0.474,315.857,-79.407,-152.161
-0.131,1.086,-0.333,304.81,-118.958,-180.603
0.016,0.958,-0.078,286.865,-151.245,-208.13
0.15,0.749,0.258,281.25,-159.119,-224.609
0.255,0.557,0.557,285.278,-139.893,-227.539
0.336,0.456,0.759,285.522,-108.398,-221.863
0.349,0.407,0.855,306.396,-60.364,-217.651
0.321,0.294,0.775,345.154,-7.446,-209.839
0.297,0.129,0.525,380.615,30.273,-187.622
0.232,0.045,0.234,404.114,40.222,-137.756
0.178,0.258,0.057,411.194,19.897,-62.744
0.229,0.802,0.019,383.118,-31.006,-22.705
0.353,1.365,0.281,331.97,-102.478,-65.247
0.383,1.575,0.905,325.012,-139.099,-124.329
0.377,1.547,1.484,358.704,-105.408,-156.738
0.451,1.441,1.524,422.852,-49.133,-185.364
0.56,1.244,1.115,428.223,-58.35,-192.505
0.74,1.186,0.939,349.426,-145.63,-174.622
1.006,1.199,1.382,252.197,-239.807,-169.617
1.244,1.045,2.241,197.632,-276.184,-150.146
1.282,0.995,3.103,189.514,-212.952,-114.624
1.207,1.222,3.383,218.567,-65.125,-100.769
1.248,1.499,2.811,237.366,70.19,-140.747
1.252,1.467,1.876,243.774,130.92,-217.407
1.084,1.041,1.001,249.084,113.159,-215.027
0.951,0.883,0.424,256.348,11.536,-75.684
1.053,1.618,0.55,222.656,-141.235,34.546
1.265,2.505,1.456,190.002,-265.747,-17.273
1.258,2.432,2.789,193.115,-301.208,-115.845
1.121,1.778,3.752,199.646,-237.549,-147.156
1.048,1.241,3.998,193.115,-122.62,-142.212
1.053,0.826,3.914,177.49,-18.799,-145.386
1.104,0.398,3.516,155.884,45.288,-149.841
1.115,-0.032,2.808,134.216,81.543,-130.005
1.083,-0.304,2.024,104.431,76.904,-91.37
1.055,-0.381,1.467,65.918,18.494,-61.218
1.015,-0.383,1.418,25.085,-52.246,-46.692
0.932,-0.398,1.75,-2.93,-83.13,-36.865
0.802,-0.411,2.078,-17.09,-66.589,-16.052
0.656,-0.321,2.202,-25.94,-30.09,15.381
0.502,-0.083,2.17,-34.607,6.409,43.823
0.331,0.197,2.017,-45.715,37.354,55.603
0.185,0.392,1.762,-59.021,56.458,54.138
0.092,0.513,1.478,-71.35,64.697,45.837
0.02,0.575,1.205,-76.416,68.542,31.189
-0.055,0.564,0.956,-72.815,68.359,23.499
-0.093,0.575,0.74,-59.631,60.608,33.386
-0.07,0.701,0.568,-46.57,42.419,32.593
-0.031,0.786,0.475,-37.598,19.348,8.728
0.018,0.742,0.496,-31.738,-2.197,-11.536
0.094,0.665,0.619,-25.879,-14.893,-25.391
0.167,0.572,0.745,-17.456,-14.038,-32.959
0.235,0.481,0.805,-11.475,-9.705,-33.203
0.288,0.422,0.845,-7.202,-5.737,-29.358
0.32,0.4,0.886,-3.418,2.197,-23.499
0.335,0.4,0.894,-1.16,11.841,-18.127
0.343,0.401,0.867,0.916,20.02,-12.39
0.348,0.401,0.84,2.93,26.001,-5.981
0.325,0.417,0.824,3.967,31.799,1.343
0.297,0.463,0.79,2.869,39.124,8.911
0.268,0.49,0.711,3.113,43.701,11.719
0.255,0.497,0.594,-4.333,38.635,17.456
0.232,0.55,0.54,-14.526,22.888,17.517
0.185,0.594,0.568,-14.16,10.254,13.672
0.706,0.136,1.856,-97.351,-26.978,27.893
0.761,0.204,1.847,-109.253,-29.602,38.757
0.82,0.295,1.872,-121.521,-38.94,45.227
0.895,0.346,1.963,-132.202,-47.852,47.485
0.992,0.309,2.067,-140.686,-48.767,50.659
1.095,0.219,2.122,-148.56,-45.227,63.354
1.169,0.161,2.177,-158.875,-43.152,86.304
1.214,0.171,2.279,-167.419,-36.255,114.136
1.241,0.226,2.371,-171.021,-14.832,139.404
1.243,0.312,2.383,-167.908,15.686,161.072
1.209,0.432,2.333,-160.889,43.762,177.917
1.157,0.546,2.204,-152.1,71.228,182.373
1.08,0.602,1.977,-150.818,81.543,178.162
0.963,0.634,1.764,-161.499,65.735,174.316
0.849,0.655,1.659,-178.406,36.011,166.382
0.775,0.613,1.669,-194.824,5.371,155.701
0.755,0.505,1.764,-206.604,-16.113,149.17
0.765,0.405,1.887,-212.891,-24.048,151.978
0.775,0.337,1.963,-218.201,-19.165,158.752
0.762,0.322,1.956,-223.022,-8.789,171.57
0.718,0.387,1.959,-233.948,-3.54,185.364
0.652,0.461,1.971,-247.07,13.55,193.97
0.581,0.557,1.862,-255.737,41.626,205.017
0.502,0.718,1.652,-263.123,58.716,210.266
0.412,0.878,1.447,-267.273,65.125,205.994
0.32,0.959,1.249,-270.752,68.42,193.909
0.25,0.964,1.005,-269.226,68.359,182.19
0.218,0.937,0.763,-266.418,54.688,173.584
0.195,0.893,0.609,-264.343,33.325,167.603
0.181,0.867,0.521,-258.057,13.794,167.725
0.188,0.87,0.474,-253.235,-5.127,167.358
0.206,0.862,0.488,-248.535,-22.705,169.189
0.21,0.826,0.555,-252.014,-34.058,176.025
0.195,0.772,0.591,-265.869,-33.02,190.369
0.174,0.767,0.547,-285.4,-26.978,214.6
0.123,0.846,0.473,-309.753,-16.663,230.347
0.025,0.942,0.375,-329.834,5.432,231.14
-0.133,0.983,0.23,-341.675,40.71,227.051
-0.358,1.017,-0.022,-349.609,90.698,226.501
-0.605,1.164,-0.465,-347.412,152.832,225.342
-0.845,1.367,-1.158,-318.054,218.628,209.229
-1.058,1.478,-2.046,-276.978,259.521,171.265
-1.24,1.462,-2.905,-234.192,249.39,124.329
-1.385,1.279,-3.5,-180.481,196.594,74.646
-1.443,0.911,-3.77,-109.802,127.808,32.166
-1.391,0.539,-3.695,-23.743,49.866,9.155
-1.267,0.379,-3.156,63.904,-23.315,-4.15
-1.145,0.436,-2.325,140.259,-55.786,-18.86
-1.036,0.586,-1.687,184.57,-64.331,-41.809
-0.924,0.697,-1.263,196.594,-94.116,-70.557
-0.811,0.703,-0.752,199.768,-123.108,-96.13
-0.697,0.61,-0.199,206.787,-120.3,-117.432
-0.592,0.448,0.227,213.806,-85.876,-132.568
-0.495,0.292,0.461,218.75,-32.349,-141.052
-0.416,0.168,0.479,224.731,23.621,-144.653
-0.373,0.079,0.295,230.652,66.956,-142.639
-0.37,0.06,-0.031,238.708,84.839,-134.155
-0.384,0.145,-0.353,248.169,69.885,-125.305
-0.388,0.3,-0.498,255.127,31.616,-126.343
-0.373,0.424,-0.434,257.202,-8.118,-137.878
-0.305,0.468,-0.259,253.967,-39.612,-151.917
-0.202,0.44,-0.021,252.075,-62.5,-168.152
-0.101,0.323,0.242,247.742,-66.528,-177.979
-0.003,0.166,0.438,241.699,-52.368,-175.354
0.07,0.067,0.562,239.563,-29.907,-166.26
0.118,0.056,0.652,248.657,-0.916,-157.288
0.129,0.082,0.676,276.489,36.377,-146.79
0.127,0.057,0.552,306.03,69.275,-132.996
0.134,-0.014,0.292,327.087,81.238,-110.352
0.09,0.044,0.032,335.876,62.195,-68.848
0.051,0.326,-0.043,330.994,10.62,-30.151
0.079,0.69,0.14,315.002,-45.898,-23.804
0.189,0.937,0.47,295.41,-89.905,-52.063
0.309,0.958,0.849,268.738,-117.249,-99.854
0.334,0.831,1.251,250.061,-119.629,-123.108
0.389,0.739,1.617,251.038,-93.75,-119.446
0.532,0.635,1.804,262.756,-49.927,-128.784
0.627,0.382,1.757,272.644,-10.376,-134.583
0.634,0.14,1.601,267.395,9.033,-106.628
0.59,0.159,1.391,253.296,12.695,-55.969
0.493,0.487,1.045,229.492,-8.362,-10.925
0.407,1.035,0.668,191.284,-78.247,13.184
0.471,1.644,0.623,141.479,-193.787,-2.258
0.713,2.052,1.119,107.483,-291.443,-76.599
1.055,2.049,1.888,100.281,-316.162,-187.927
1.432,1.677,2.562,105.469,-268.494,-307.312
1.638,0.978,3.013,127.014,-177.185,-381.958
1.555,0.227,3.192,143.738,-77.637,-352.234
1.385,-0.141,3.233,156.677,5.249,-248.474
1.158,-0.18,3.047,194.092,85.449,-89.783
0.987,0.335,2.58,179.932,117.92,24.78
0.941,1.065,2.172,178.223,92.529,12.695
0.876,1.242,1.998,165.405,38.818,-50.171
0.86,1.061,2.034,146.362,-10.193,-90.332
0.931,0.862,2.132,125.488,-33.508,-112.427
1.05,0.646,2.146,107.788,-40.283,-141.357
1.199,0.248,2.068,93.201,-40.039,-167.358
1.346,-0.244,1.948,77.82,-30.823,-162.17
1.436,-0.572,1.818,58.777,-22.827,-129.089
1.459,-0.704,1.727,41.626,-20.081,-93.14
1.414,-0.772,1.72,26.55,-16.418,-58.289
1.281,-0.778,1.77,11.78,-3.174,-13.367
1.056,-0.633,1.752,-1.038,21.973,41.565
0.826,-0.31,1.603,-11.108,45.227,85.327
0.603,0.039,1.458,-25.024,56.03,100.342
0.385,0.314,1.345,-34.424,75.867,104.004
0.198,0.52,1.171,-38.086,95.337,92.041
0.04,0.609,0.945,-29.358,101.624,83.801
-0.058,0.728,0.7,-26.123,91.614,74.646
-0.13,0.851,0.516,-25.085,68.359,44.922
-0.181,0.824,0.452,-28.503,38.635,17.395
-0.181,0.764,0.492,-31.677,11.292,-0.427
-0.145,0.714,0.608,-29.358,-7.263,-17.09
-0.072,0.615,0.741,-23.682,-14.648,-31.799
0.036,0.474,0.831,-18.555,-15.625,-39.734
0.146,0.339,0.897,-15.259,-14.526,-41.077
0.234,0.231,0.956,-12.756,-9.216,-35.4
0.294,0.163,0.98,-10.132,-1.709,-24.536
0.324,0.138,0.982,-8.24,4.15,-11.658
0.328,0.156,0.988,-5.493,10.864,0.366
0.754,-0.17,1.893,-60.974,-27.344,-28.687
0.822,-0.163,1.9,-68.848,-24.475,-18.677
0.855,-0.122,1.992,-76.294,-23.01,-6.897
0.876,-0.022,2.138,-82.703,-13.245,3.418
0.923,0.079,2.257,-89.905,1.526,4.822
0.989,0.133,2.327,-98.083,13.794,7.69
1.075,0.159,2.378,-109.009,20.081,13.55
1.168,0.136,2.424,-123.84,23.315,21.545
1.227,0.088,2.447,-138.794,26.672,39.612
1.245,0.089,2.452,-153.198,27.039,65.857
1.217,0.137,2.484,-166.321,24.292,91.37
1.14,0.206,2.573,-178.833,23.071,117.981
1.044,0.336,2.682,-189.575,35.706,147.583
0.946,0.527,2.691,-195.007,65.674,167.542
0.855,0.677,2.499,-197.571,97.046,168.884
0.759,0.696,2.153,-202.087,109.436,162.231
0.644,0.672,1.813,-213.318,98.572,161.072
0.547,0.698,1.618,-226.379,70.496,160.583
0.475,0.689,1.589,-241.516,43.579,151.306
0.416,0.603,1.621,-255.249,32.532,147.034
0.386,0.513,1.623,-265.442,35.034,152.649
0.34,0.498,1.643,-271.423,44.312,163.513
0.275,0.56,1.687,-269.836,70.068,173.096
0.192,0.665,1.611,-262.878,112.732,177.185
0.087,0.801,1.351,-257.446,148.682,177.368
-0.03,0.948,1.017,-253.601,162.109,170.105
-0.156,1.084,0.757,-251.648,154.968,157.837
-0.246,1.153,0.582,-253.052,141.724,137.878
-0.298,1.085,0.422,-253.723,124.878,120.85
-0.347,0.94,0.234,-257.507,100.037,121.033
-0.349,0.855,0.075,-265.32,61.035,137.451
-0.269,0.868,0.032,-280.64,15.137,145.081
-0.169,0.886,0.118,-307.373,-26.184,133.667
-0.09,0.85,0.302,-334.717,-50.171,119.873
-0.01,0.803,0.503,-355.713,-45.715,113.037
0.071,0.802,0.656,-373.169,-11.658,111.145
0.132,0.844,0.667,-389.526,49.988,110.535
0.169,0.925,0.425,-417.908,120.911,112.671
0.175,1.04,-0.053,-463.196,183.899,117.065
0.133,1.154,-0.846,-493.591,247.986,123.657
0.036,1.092,-2.132,-459.229,295.349,124.634
-0.116,0.822,-3.432,-402.161,255.432,123.169
-0.33,0.561,-3.977,-311.279,128.601,128.052
-0.598,0.515,-3.97,-204.102,-0.671,141.113
-0.813,0.742,-3.59,-73.303,-56.519,136.902
-0.895,1.011,-2.912,59.387,-45.837,95.642
-0.893,1.09,-2.411,158.264,-24.292,31.799
-0.804,0.938,-2.116,216.675,-24.292,-27.039
-0.651,0.7,-1.863,233.765,-59.448,-65.308
-0.522,0.536,-1.437,224.548,-112.122,-81.604
-0.436,0.468,-0.837,213.623,-132.507,-83.862
-0.375,0.45,-0.35,211.365,-112.61,-88.013
-0.338,0.403,-0.113,216.248,-77.087,-99.304
-0.317,0.287,-0.048,221.863,-44.434,-110.229
-0.312,0.154,-0.079,228.333,-15.198,-111.938
-0.324,0.089,-0.199,239.624,8.24,-101.868
-0.34,0.15,-0.369,253.723,17.517,-88.989
-0.377,0.312,-0.51,264.587,11.292,-83.496
-0.405,0.482,-0.594,273.071,-4.089,-88.928
-0.376,0.571,-0.639,279.785,-26.062,-103.943
-0.297,0.564,-0.646,282.349,-54.016,-117.92
-0.203,0.531,-0.589,280.884,-84.9,-123.901
-0.112,0.549,-0.417,279.297,-112.366,-128.357
-0.042,0.577,-0.173,281.189,-121.765,-133.606
0.03,0.605,0.035,280.945,-117.493,-138.977
0.108,0.633,0.221,281.555,-109.375,-150.696
0.15,0.586,0.427,283.63,-92.468,-160.461
0.178,0.472,0.614,294.434,-61.584,-157.288
0.173,0.37,0.7,313.599,-21.423,-134.46
0.08,0.431,0.595,334.534,18.555,-91.492
-0.072,0.806,0.39,340.82,28.076,-43.945
-0.127,1.361,0.336,337.891,-2.686,-28.32
0.022,1.728,0.564,336.06,-46.021,-66.772
0.278,1.67,1.064,334.229,-74.524,-135.864
0.507,1.201,1.556,341.919,-54.26,-189.636
0.63,0.645,1.585,369.568,4.883,-190.308
0.596,0.445,1.091,375.549,25.391,-135.864
0.525,0.757,0.498,335.083,-49.377,-51.758
0.609,1.492,0.551,233.948,-226.746,19.897
0.789,2.364,1.738,140.808,-383.911,11.23
0.98,2.773,3.265,142.09,-362.61,-97.778
1.327,2.419,3.953,194.519,-182.678,-261.047
1.598,1.416,3.741,269.836,46.448,-377.563
1.545,0.448,2.928,294.189,171.936,-350.281
1.204,-0.004,2.165,289.307,162.598,-204.468
0.843,0.143,1.83,294.312,98.206,39.734
0.716,1.177,1.934,268.311,4.517,168.945
0.556,2.142,2.524,274.963,-61.584,99.915
0.298,2.055,3.133,263.245,-79.773,-25.085
0.122,1.448,3.512,238.647,-68.909,-81.177
0.11,1.026,3.622,205.322,-26.917,-115.173
0.168,0.642,3.22,209.045,31.982,-128.662
0.388,0.338,2.499,172.119,11.475,-132.874
0.779,0.03,2.143,123.291,-53.528,-168.091
1.111,-0.582,2.154,85.815,-79.285,-175.354
1.31,-1.17,2.133,56.946,-68.97,-136.108
1.288,-1.443,2.096,14.526,-67.505,-51.331
1.061,-1.214,2.227,-12.268,-47.363,55.969
0.748,-0.584,2.297,-18.799,13.428,124.023
0.406,0.041,2.07,-15.198,71.35,138.672
0.083,0.427,1.687,-17.212,94.177,129.272
-0.191,0.641,1.323,-27.283,87.402,112.976
-0.382,0.791,1.013,-38.086,67.139,91.431
-0.484,0.897,0.779,-43.701,37.476,58.167
-0.531,0.927,0.688,-41.809,4.456,21.606
-0.501,0.902,0.73,-35.645,-19.836,-10.071
-0.385,0.836,0.827,-26.184,-30.884,-39.551
-0.22,0.712,0.912,-17.761,-31.982,-66.04
-0.048,0.537,0.957,-12.817,-31.128,-83.313
0.126,0.347,1.011,-10.071,-31.738,-86.121
0.272,0.191,1.086,-7.446,-26.367,-76.111
0.365,0.104,1.134,-5.92,-16.479,-58.533
0.412,0.081,1.151,-6.226,-7.08,-39.246
0.417,0.1,1.155,-7.446,1.892,-20.264
0.391,0.154,1.15,-8.423,12.207,-4.028
0.344,0.227,1.136,-7.69,24.353,7.874
0.285,0.307,1.094,-6.897,36.926,15.625
0.222,0.39,1.01,-8.24,44.495,19.775
0.171,0.459,0.897,-12.024,44.861,19.104
0.128,0.505,0.782,-16.235,38.696,15.564
0.742,-0.059,1.856,-90.942,-49.255,61.89
0.789,-0.039,1.87,-99.609,-42.175,71.777
0.828,-0.021,1.861,-106.079,-33.386,81.787
0.854,0.001,1.822,-110.291,-25.513,93.506
0.882,0.036,1.789,-114.502,-22.888,104.736
0.898,0.064,1.794,-117.371,-22.278,115.662
0.903,0.095,1.832,-120.667,-20.081,127.502
0.931,0.161,1.883,-121.277,-16.113,139.465
0.946,0.307,1.837,-134.094,-13.794,137.085
0.95,0.346,1.82,-161.316,-36.133,118.835
0.969,0.233,1.963,-164.978,-41.565,117.493
1.005,0.144,2.038,-168.945,-20.386,123.718
1.044,0.091,1.984,-171.265,-6.348,135.376
1.046,0.102,1.925,-177.307,-4.456,149.841
1.022,0.167,1.879,-184.57,-1.648,158.936
1.012,0.226,1.781,-192.444,-2.93,162.109
1.028,0.232,1.698,-206.543,-18.555,161.377
1.05,0.172,1.724,-220.093,-36.743,163.513
1.077,0.105,1.793,-224.731,-39.001,173.767
1.12,0.085,1.813,-224.731,-33.02,186.035
1.163,0.064,1.791,-225.525,-27.71,194.275
1.19,0.032,1.764,-224.487,-22.644,206.604
1.182,0.047,1.762,-222.778,-15.869,224.06
1.11,0.147,1.752,-219.849,0.305,242.737
0.983,0.333,1.661,-215.393,21.79,256.47
0.834,0.517,1.454,-213.257,38.025,256.775
0.707,0.644,1.176,-209.9,39.368,251.404
0.62,0.73,0.973,-210.815,20.203,241.699
0.541,0.76,0.953,-215.332,-1.343,231.262
0.476,0.745,0.988,-216.187,-2.075,225.159
0.45,0.744,0.916,-210.999,6.104,225.952
0.439,0.768,0.79,-210.205,1.465,227.539
0.445,0.762,0.748,-217.712,-12.939,230.042
0.45,0.732,0.824,-233.459,-18.982,234.07
0.407,0.721,0.936,-249.268,-4.944,243.53
0.336,0.772,0.997,-257.08,30.151,256.958
0.218,0.912,0.981,-256.226,87.402,262.939
0.013,1.085,0.801,-257.935,157.043,262.207
-0.257,1.284,0.42,-275.757,219.788,260.864
-0.598,1.608,-0.115,-292.48,283.386,264.954
-0.97,1.957,-0.867,-296.021,354.37,256.958
-1.272,2.189,-1.959,-274.841,414.612,229.187
-1.486,2.196,-3.226,-212.646,422.424,176.819
-1.624,1.785,-3.925,-120.911,344.299,104.492
-1.687,1.154,-3.999,-38.33,154.114,62.012
-1.662,0.86,-3.856,17.395,-68.176,55.115
-1.511,1.042,-2.914,82.092,-172.302,31.921
-1.247,1.176,-1.563,151.367,-155.762,-36.743
-0.934,0.944,-0.841,197.998,-101.013,-113.22
-0.607,0.536,-0.672,191.956,-85.693,-165.405
-0.338,0.158,-0.489,163.391,-120.667,-178.345
-0.183,-0.127,-0.032,142.578,-135.254,-165.466
-0.112,-0.302,0.428,139.709,-95.337,-147.217
-0.087,-0.387,0.633,157.227,-23.254,-126.831
-0.095,-0.404,0.537,177.307,41.87,-106.873
-0.129,-0.379,0.294,192.627,81.604,-90.332
-0.18,-0.339,0.035,206.055,104.492,-76.538
-0.25,-0.26,-0.252,217.59,114.624,-61.829
-0.314,-0.104,-0.539,226.013,103.027,-50.11
-0.367,0.089,-0.709,230.835,72.388,-46.997
-0.422,0.327,-0.705,234.131,36.133,-49.438
-0.442,0.558,-0.556,250.671,9.521,-68.726
-0.396,0.592,-0.44,268.494,1.038,-98.389
-0.297,0.476,-0.406,275.33,-13.855,-120.3
-0.209,0.386,-0.291,279.541,-32.837,-129.211
-0.15,0.379,-0.067,290.894,-37.659,-129.639
-0.107,0.395,0.085,307.068,-23.437,-130.188
-0.073,0.372,0.061,317.322,-13.977,-121.582
-0.051,0.384,0.008,316.772,-22.644,-97.656
-0.071,0.581,0.078,311.279,-38.879,-66.772
-0.104,0.931,0.253,310.669,-49.255,-55.115
-0.059,1.22,0.45,321.777,-45.898,-77.209
0.072,1.251,0.614,342.468,-31.677,-125
0.213,0.989,0.631,362.244,-8.179,-164.795
0.34,0.691,0.477,368.53,-3.967,-160.889
0.434,0.667,0.433,345.764,-43.701,-122.07
0.468,0.934,0.691,304.749,-98.206,-80.505
0.497,1.29,1.101,271.606,-134.277,-61.584
0.551,1.583,1.458,263.489,-149.658,-65.369
0.62,1.835,1.73,259.399,-163.33,-83.374
0.759,2.014,2.055,253.967,-192.688,-114.502
0.981,1.918,2.484,245.85,-223.267,-158.02
1.217,1.575,2.946,241.333,-216.98,-196.411
1.394,1.103,3.166,246.277,-156.738,-212.83
1.505,0.625,3.029,242.981,-103.455,-189.758
1.544,0.371,2.885,226.318,-84.29,-141.907
1.459,0.397,2.89,213.806,-61.218,-93.933
1.343,0.708,2.841,185.913,-27.588,-86.609
1.237,0.966,2.748,158.997,-4.028,-136.902
0.869,0.414,2.734,196.411,27.1,-133.789
0.603,0.04,2.546,216.736,33.142,-5.31
0.632,0.608,2.439,192.505,-3.052,26.001
0.557,0.825,2.603,171.387,-13.184,-43.884
0.47,0.452,2.608,145.569,-2.441,-81.116
0.488,0.155,2.363,117.859,7.568,-75.378
0.555,0.043,2.026,88.196,-3.601,-68.665
0.61,-0.05,1.823,59.265,-28.748,-67.566
0.657,-0.193,1.774,36.56,-40.955,-63.843
0.676,-0.344,1.755,17.639,-41.321,-48.401
0.647,-0.408,1.748,4.883,-34.851,-21.179
0.58,-0.351,1.719,-1.221,-19.836,7.568
0.472,-0.218,1.652,-6.287,-0.732,30.701
0.339,-0.05,1.562,-7.507,22.766,49.683
0.209,0.12,1.418,-1.343,47.546,62.256
0.086,0.255,1.229,4.822,62.378,68.726
-0.04,0.38,1.056,4.089,64.148,73.303
-0.171,0.572,0.908,-0.671,59.448,72.266
-0.266,0.792,0.751,-4.456,45.044,53.162
-0.299,0.893,0.649,-7.08,16.479,18.921
-0.272,0.839,0.695,-8.423,-11.169,-12.39
-0.182,0.717,0.826,-6.165,-22.705,-33.447
-0.068,0.592,0.923,-2.747,-24.048,-45.959
0.055,0.469,0.985,0.793,-23.926,-52.185
0.172,0.33,1.042,2.258,-20.813,-51.88
0.254,0.217,1.082,1.465,-14.282,-41.992
0.3,0.173,1.115,1.282,-5.676,-28.015
0.313,0.184,1.131,1.953,6.775,-14.404
0.299,0.221,1.104,2.747,19.043,-3.174
0.273,0.27,1.04,3.174,28.748,5.188
0.236,0.324,0.979,1.831,30.945,11.719
0.793,-0.014,1.893,-155.64,-17.334,59.937
0.834,0.025,2.077,-157.593,-5.493,69.824
0.849,0.053,2.184,-157.898,20.081,79.712
0.859,0.073,2.107,-161.804,44.556,90.82
0.863,0.092,1.912,-171.265,50.964,101.318
0.835,0.14,1.769,-182.8,38.025,115.051
0.788,0.258,1.772,-193.237,20.264,128.662
0.743,0.401,1.858,-199.829,13.489,133.789
0.73,0.453,1.873,-203.857,19.714,129.7
0.734,0.394,1.792,-209.778,20.508,128.54
0.715,0.349,1.762,-216.797,13.184,137.451
0.669,0.401,1.829,-220.886,12.024,148.56
0.62,0.483,1.868,-223.022,21.729,152.649
0.571,0.517,1.795,-227.966,32.349,152.893
0.52,0.517,1.647,-236.084,36.011,154.968
0.466,0.541,1.512,-244.446,31.982,158.447
0.405,0.596,1.441,-248.23,26.001,159.729
0.349,0.66,1.396,-245.667,24.17,158.63
0.293,0.733,1.366,-242.187,21.179,154.602
0.251,0.763,1.354,-240.967,20.142,145.996
0.245,0.695,1.276,-240.173,25.146,137.024
0.258,0.586,1.155,-242.187,20.691,137.451
0.256,0.523,1.099,-245.239,11.475,148.132
0.244,0.544,1.093,-248.474,8.118,162.659
0.22,0.578,1.06,-253.113,12.39,174.072
0.19,0.608,0.96,-260.986,17.578,186.829
0.157,0.719,0.847,-270.996,18.494,194.946
0.111,0.823,0.801,-276.855,22.705,186.829
0.06,0.799,0.754,-270.691,50.415,171.631
-0.03,0.753,0.542,-256.348,94.727,165.039
-0.192,0.812,0.124,-250,129.639,162.354
-0.427,0.944,-0.411,-262.817,143.677,151.306
-0.701,1.083,-1,-275.696,139.221,138.245
-0.964,1.17,-1.608,-282.043,120.667,117.004
-1.154,1.164,-2.186,-290.527,91.736,80.688
-1.265,1.018,-2.621,-287.659,58.96,33.875
-1.32,0.715,-2.845,-255.005,48.706,6.714
-1.333,0.445,-3.002,-199.524,62.378,6.47
-1.288,0.317,-3.146,-116.089,71.228,15.747
-1.169,0.245,-3.141,-15.747,66.467,12.512
-1.036,0.191,-2.901,79.102,52.063,-3.235
-0.929,0.189,-2.48,143.616,32.471,-18.066
-0.831,0.284,-2.048,171.753,7.08,-30.823
-0.696,0.409,-1.628,171.448,-35.889,-57.068
-0.544,0.371,-1.073,172.913,-72.754,-90.271
-0.424,0.141,-0.494,182.8,-65.796,-107.361
-0.33,-0.096,-0.171,198.669,-28.625,-100.83
-0.26,-0.215,-0.114,211.182,5.188,-83.984
-0.24,-0.206,-0.156,220.886,21.851,-65.918
-0.31,-0.063,-0.166,227.6,25.208,-47.485
-0.405,0.182,-0.139,236.694,25.208,-39.978
-0.454,0.378,-0.119,245.972,20.691,-52.307
-0.459,0.415,-0.104,251.526,8.789,-71.228
-0.421,0.329,-0.082,247.681,-6.836,-81.97
-0.336,0.231,-0.019,240.662,-24.475,-81.787
-0.254,0.176,0.096,239.441,-33.813,-79.285
-0.244,0.241,0.25,237.61,-34.973,-63.354
-0.256,0.462,0.41,242.371,-26.062,-54.749
-0.236,0.634,0.497,260.437,-8.423,-74.097
-0.228,0.623,0.491,277.649,3.357,-97.412
-0.236,0.567,0.469,292.603,6.897,-102.966
-0.195,0.533,0.441,303.711,7.324,-103.21
-0.11,0.41,0.384,307.068,0.916,-100.769
-0.068,0.345,0.328,302.429,-13.611,-82.642
-0.069,0.55,0.32,297.791,-36.987,-63.171
-0.045,0.905,0.464,290.527,-70.068,-64.026
0.028,1.198,0.803,284.119,-92.59,-91.37
0.124,1.282,1.208,283.875,-90.576,-133.85
0.237,1.089,1.452,287.659,-61.34,-173.035
0.345,0.751,1.381,292.175,-30.334,-184.814
0.401,0.582,1.143,280.823,-36.072,-161.133
0.419,0.656,1.048,263.489,-72.571,-129.517
0.481,0.803,1.163,246.155,-107.239,-111.206
0.63,0.908,1.405,236.633,-125.061,-114.014
0.68,0.928,1.779,233.398,-126.221,-117.432
0.587,1.019,2.218,246.826,-92.896,-95.581
0.549,1.228,2.294,278.381,-14.282,-91.553
0.599,1.292,1.747,301.331,29.053,-112.854
0.665,1.228,1.132,284.485,-21.912,-121.277
0.768,1.251,1.055,251.648,-111.694,-115.845
0.934,1.306,1.483,227.722,-174.927,-120.667
1.08,1.226,2.125,212.524,-191.895,-131.287
1.156,1.074,2.765,207.397,-161.255,-129.272
1.124,1.119,3.266,206.909,-93.445,-130.005
1.025,1.188,3.523,208.13,-3.967,-165.039
0.761,0.544,3.57,232.056,100.342,-156.921
0.472,0.115,3.107,266.541,184.753,-11.108
0.361,0.845,2.309,245.483,162.109,44.006
0.237,1.373,1.83,202.271,85.571,-32.471
0.188,1.091,1.645,155.579,7.324,-94.116
0.364,0.717,1.626,114.807,-60.913,-115.295
0.668,0.413,1.799,84.473,-112.854,-141.235
0.971,-0.082,2.144,60.303,-131.287,-158.569
1.184,-0.647,2.457,39.856,-105.713,-134.644
1.246,-0.999,2.526,18.738,-56.091,-74.646
1.153,-0.998,2.389,-3.357,-11.108,-0.61
0.942,-0.668,2.194,-20.264,26.306,63.354
0.672,-0.203,1.95,-25.879,59.631,98.267
0.405,0.199,1.672,-28.748,79.041,109.253
0.171,0.479,1.407,-31.738,88.562,103.577
-0.013,0.658,1.132,-35.095,87.708,91.37
-0.131,0.778,0.878,-39.795,72.449,73.792
-0.197,0.836,0.699,-43.03,48.035,51.025
-0.227,0.831,0.601,-42.603,23.193,28.931
-0.223,0.794,0.571,-40.466,0.671,11.414
-0.195,0.751,0.619,-36.499,-17.273,-2.197
-0.142,0.693,0.715,-30.273,-23.804,-14.526
-0.076,0.609,0.79,-22.217,-21.79,-22.888
-0.013,0.528,0.846,-15.32,-18.677,-25.452
0.044,0.471,0.897,-10.559,-12.634,-24.902
0.094,0.427,0.919,-7.202,-5.005,-21.79
0.138,0.394,0.926,-4.944,0.305,-16.968
0.17,0.372,0.944,-3.967,5.31,-10.803
0.188,0.372,0.966,-3.784,12.329,-3.296
0.179,0.399,0.955,-3.601,20.264,2.93
0.157,0.426,0.914,-8.057,22.705,10.01
0.15,0.46,0.881,-15.015,23.804,14.771
0.149,0.494,0.839,-16.418,22.4,13.855
0.143,0.497,0.802,-18.188,17.029,12.817
0.133,0.498,0.784,-23.071,11.292,15.747
