aX,aY,aZ,gX,gY,gZ
-1.79,0.568,0.667,63.721,15.137,200.378
-1.98,0.598,0.788,70.923,-14.038,204.346
-2.058,0.729,1.098,72.51,-23.254,199.341
-2.107,0.835,1.401,84.167,26.855,161.56
-2.187,0.731,1.328,86.548,84.29,126.831
-2.202,0.612,1.025,65.247,111.328,113.159
-2.18,0.626,0.748,48.767,120.239,92.957
-2.176,0.663,0.494,39.368,112.671,72.449
-2.17,0.646,0.325,20.874,93.018,57.678
-2.182,0.555,0.281,1.831,72.998,46.387
-2.187,0.44,0.291,-21.912,49.561,53.528
-2.118,0.455,0.366,-26.978,31.677,59.692
-2.024,0.527,0.46,-22.217,33.203,42.725
-1.952,0.519,0.456,-13.977,41.626,23.804
-1.868,0.513,0.362,-9.094,46.814,11.475
-1.764,0.533,0.239,1.831,44.495,0.305
-1.654,0.53,0.137,10.62,37.048,-11.292
-1.544,0.48,0.069,15.808,27.771,-23.437
-1.439,0.388,0.014,17.822,18.188,-33.325
-1.349,0.286,-0.028,8.667,7.812,-37.964
-1.272,0.199,-0.026,-2.625,-3.235,-38.025
-1.203,0.144,0.01,-7.751,-11.169,-35.583
-1.147,0.128,0.042,-8.85,-15.747,-32.104
-1.108,0.156,0.072,-13,-19.409,-28.381
-1.07,0.213,0.112,-12.329,-21.057,-28.198
-1.042,0.265,0.143,-11.108,-19.714,-30.945
-1.023,0.297,0.167,-8.972,-18.372,-32.898
-0.999,0.319,0.2,-3.601,-15.991,-35.034
-0.971,0.337,0.21,9.033,-9.705,-39.001
-0.942,0.323,0.172,17.883,-5.676,-45.349
-0.917,0.272,0.12,20.264,-5.005,-48.34
-0.896,0.224,0.083,19.104,-7.446,-46.387
-0.875,0.185,0.076,17.212,-10.986,-43.884
-0.863,0.145,0.106,13.977,-12.573,-40.71
-0.853,0.106,0.149,9.399,-9.216,-35.461
-0.847,0.084,0.162,8.545,-3.54,-28.931
-0.861,0.127,0.141,8.667,-0.854,-19.836
-0.871,0.249,0.127,3.662,0.366,-12.573
-0.872,0.375,0.109,5.615,3.906,-14.893
-0.872,0.423,0.07,7.874,4.7,-22.583
-0.877,0.386,0.055,14.038,0.977,-29.541
-0.885,0.322,0.085,14.282,-3.296,-30.518
-0.875,0.27,0.123,11.23,-0.732,-28.931
-0.862,0.218,0.116,14.526,4.272,-29.175
-0.86,0.152,0.073,16.968,5.615,-27.1
-0.87,0.121,0.024,14.343,1.648,-20.447
-0.882,0.163,0.027,3.479,-6.592,-13.245
-0.887,0.214,0.091,-1.16,-10.498,-13.367
-0.893,0.209,0.147,1.038,-7.874,-16.174
-0.902,0.166,0.154,3.906,-3.906,-15.381
-0.915,0.145,0.14,2.197,-3.601,-10.132
-0.915,0.176,0.146,-2.808,-4.395,-5.066
-0.901,0.202,0.158,-3.723,-1.099,-6.836
-0.894,0.171,0.148,-0.427,2.197,-9.521
-0.898,0.142,0.126,1.038,2.441,-6.531
-0.904,0.173,0.117,-3.113,1.831,-1.709
-0.904,0.225,0.115,-3.967,1.892,-2.808
-0.9,0.229,0.101,-0.61,2.136,-7.69
-0.9,0.178,0.083,4.333,0.183,-10.742
-0.903,0.137,0.088,5.249,-3.54,-9.338
-0.902,0.142,0.113,4.15,-5.432,-6.836
-0.899,0.139,0.131,5.066,-5.188,-8.789
-0.911,0.095,0.143,6.47,-6.165,-9.033
-0.93,0.058,0.175,5.798,-7.874,-4.456
-0.942,0.065,0.218,3.54,-5.493,0.977
-0.946,0.091,0.236,3.052,0.244,3.235
-0.947,0.1,0.218,7.263,4.761,3.845
-0.959,0.125,0.179,8.728,6.775,6.958
-0.968,0.204,0.133,5.554,8.545,9.033
-0.967,0.275,0.088,5.31,7.507,3.906
-0.96,0.268,0.063,6.775,2.38,-4.272
-0.948,0.201,0.065,7.751,-1.587,-8.484
-0.944,0.131,0.076,4.7,-4.456,-8.423
-0.947,0.071,0.106,0.183,-8.301,-6.958
-0.95,0.023,0.149,-0.793,-10.254,-3.723
-0.953,0.003,0.182,-1.77,-9.46,1.709
-0.957,0.027,0.197,-2.686,-7.69,7.446
-0.97,0.106,0.208,-5.249,-5.615,11.841
-0.988,0.194,0.225,-7.141,-2.625,10.437
-1.001,0.226,0.238,-3.784,1.892,5.127
-1.002,0.211,0.23,1.038,6.714,1.526
-0.993,0.192,0.196,3.174,11.536,-0.061
-0.983,0.173,0.151,1.099,14.16,-1.038
-0.972,0.139,0.113,1.892,13.672,-1.953
-0.96,0.096,0.084,3.357,10.986,-1.465
-0.949,0.065,0.067,3.784,7.568,1.16
-0.945,0.075,0.052,2.197,3.906,4.944
-0.95,0.112,0.053,-3.235,-0.061,6.775
-0.958,0.14,0.077,-3.662,-3.113,5.798
-0.966,0.154,0.102,-1.709,-3.906,5.005
-0.973,0.161,0.117,-0.244,-3.906,4.456
-0.982,0.164,0.138,-1.16,-3.967,4.517
-0.989,0.164,0.171,0.549,-2.93,4.272
-0.984,0.15,0.176,5.005,1.404,2.319
-0.974,0.116,0.141,5.92,4.15,1.343
-0.967,0.084,0.111,3.784,1.709,2.869
-0.964,0.071,0.117,1.343,-1.343,4.7
-0.965,0.079,0.133,-2.808,-0.671,6.897
-0.967,0.108,0.13,-4.639,0.732,9.033
-0.97,0.143,0.117,-3.845,0,9.277
-0.981,0.177,0.115,-2.258,-1.648,9.216
-0.992,0.219,0.13,-0.366,-2.808,8.423
-0.995,0.242,0.152,0.183,-1.221,4.395
-0.998,0.222,0.162,1.221,1.953,0.732
-0.997,0.192,0.153,1.77,3.906,0.122
-0.991,0.17,0.141,0.977,4.272,0.427
-0.986,0.154,0.139,-0.671,4.7,0.916
-0.986,0.144,0.138,-2.258,5.676,1.953
-0.986,0.153,0.133,-3.174,6.287,3.662
-0.984,0.181,0.127,-2.441,6.531,4.15
-0.982,0.212,0.119,-0.854,7.08,2.686
-0.981,0.223,0.105,-0.732,7.202,0.244
-0.977,0.208,0.091,0.732,5.554,-1.831
-0.97,0.176,0.088,1.77,3.235,-2.747
-0.965,0.144,0.099,0.366,0.977,-2.014
-0.966,0.128,0.125,-2.686,-0.244,0
-0.97,0.129,0.147,-2.686,0.427,1.465
-0.974,0.144,0.153,-2.502,2.014,3.174
-0.973,0.171,0.15,-3.357,3.418,4.211
-0.973,0.19,0.146,-2.686,4.15,2.625
-2.407,0.314,0.483,-41.931,9.521,12.268
-2.487,0.385,0.488,-28.198,21.973,8.911
-2.526,0.586,0.42,-33.691,30.334,10.132
-2.48,0.839,0.368,-45.715,35.828,-3.784
-2.368,0.959,0.325,-56.58,42.847,-34.729
-2.247,0.881,0.273,-63.354,45.288,-69.214
-2.113,0.696,0.233,-70.007,40.039,-92.285
-1.956,0.535,0.215,-73.425,32.959,-100.22
-1.792,0.418,0.197,-77.637,28.076,-105.164
-1.62,0.251,0.16,-88.562,26.672,-109.741
-1.463,0.034,0.092,-98.206,24.841,-107.788
-1.324,-0.144,-0.014,-105.164,20.203,-103.76
-1.198,-0.267,-0.14,-120.3,10.559,-95.398
-1.097,-0.337,-0.242,-139.465,-5.493,-79.773
-1.01,-0.348,-0.295,-160.767,-24.17,-63.354
-0.93,-0.318,-0.274,-185.852,-40.222,-52.368
-0.867,-0.29,-0.19,-192.871,-53.04,-46.387
-0.815,-0.278,-0.082,-182.8,-58.899,-46.448
-0.764,-0.251,0.017,-149.902,-54.26,-48.279
-0.73,-0.194,0.082,-93.872,-43.152,-49.255
-0.738,-0.117,0.095,-26.367,-29.907,-50.232
-0.778,-0.053,0.064,21.606,-23.315,-55.664
-0.824,-0.045,0.009,60.425,-27.283,-64.026
-0.872,-0.104,-0.087,80.933,-41.138,-68.726
-0.864,-0.192,-0.121,83.374,-60.852,-70.496
-0.813,-0.275,-0.04,95.703,-65.613,-69.58
-0.798,-0.365,0.069,93.872,-50.72,-67.688
-0.803,-0.457,0.145,80.933,-22.217,-66.895
-0.785,-0.521,0.148,75.745,9.583,-62.561
-0.744,-0.514,0.069,75.623,34.363,-51.758
-0.693,-0.422,-0.063,57.007,46.021,-37.598
-0.64,-0.282,-0.173,24.353,45.959,-24.963
-0.583,-0.145,-0.229,1.648,41.077,-18.188
-0.523,-0.048,-0.263,-9.338,33.508,-19.958
-0.479,0.012,-0.306,-29.114,21.423,-24.536
-0.455,0.003,-0.311,-76.294,-1.16,-30.457
-0.432,-0.088,-0.2,-121.765,-31.067,-37.781
-0.41,-0.189,0.006,-153.442,-55.786,-43.335
-0.377,-0.273,0.228,-168.64,-61.523,-46.204
-0.326,-0.331,0.383,-158.569,-44.8,-48.279
-0.259,-0.323,0.396,-157.471,-12.451,-46.387
-0.221,-0.28,0.293,-177.124,19.775,-41.138
-0.224,-0.328,0.125,-195.557,23.376,-11.597
-0.164,-0.317,0.039,-201.965,-0.061,40.771
-0.065,-0.13,0.117,-180.542,-7.385,65.002
-0.025,0.035,0.208,-153.015,6.409,62.683
-0.018,0.103,0.232,-117.554,19.47,54.504
0.007,0.127,0.208,-62.134,18.188,45.532
0.049,0.146,0.174,-6.958,11.902,34.851
0.086,0.166,0.132,20.508,11.841,24.78
0.114,0.185,0.067,31.128,13.611,15.93
0.127,0.216,-0.003,34.546,9.644,11.353
0.128,0.278,-0.032,27.222,1.953,10.376
0.123,0.336,-0.008,23.987,-2.808,4.395
0.115,0.349,0.009,42.969,-4.333,-5.981
0.102,0.313,-0.014,58.228,-8.728,-15.808
0.088,0.244,-0.03,64.27,-16.602,-22.705
0.073,0.171,-0.028,66.65,-23.743,-24.048
0.068,0.116,-0.04,60.913,-30.64,-19.958
0.08,0.084,-0.061,52.673,-42.236,-15.564
0.096,0.07,-0.059,46.326,-51.88,-15.015
0.099,0.052,-0.045,37.048,-56.946,-17.639
0.088,0.02,-0.025,31.677,-61.34,-18.982
0.076,-0.023,0.008,37.476,-63.232,-18.799
0.027,-0.093,0.035,51.697,-58.289,-15.564
-0.067,-0.17,0.024,62.866,-46.936,-5.31
-0.142,-0.193,-0.032,64.758,-34.973,11.047
-0.187,-0.155,-0.089,63.11,-28.931,27.039
-0.221,-0.087,-0.119,69.885,-30.09,37.476
-0.254,0.024,-0.13,77.393,-35.217,43.091
-0.282,0.191,-0.109,81.36,-38.269,43.701
-0.335,0.31,-0.061,96.558,-41.565,30.212
-0.429,0.3,0.004,112.427,-47.729,10.132
-0.541,0.206,0.082,132.08,-50.476,-5.737
-0.642,0.057,0.147,151.611,-47.485,-15.808
-0.69,-0.107,0.183,172.241,-39.307,-20.447
-0.713,-0.205,0.182,184.082,-29.724,-15.442
-0.729,-0.23,0.168,175.049,-20.752,-1.038
-0.713,-0.225,0.166,164.917,-14.343,16.052
-0.686,-0.215,0.188,155.151,-8.057,30.396
-0.727,-0.223,0.231,143.677,-5.188,43.03
-0.85,-0.254,0.293,126.831,-4.15,59.387
-0.995,-0.325,0.427,95.398,-0.122,75.317
-1.107,-0.403,0.583,81.97,13.672,92.59
-1.178,-0.377,0.623,77.209,35.461,119.202
-1.209,-0.214,0.561,51.941,57.007,150.024
-1.209,0.018,0.457,28.076,69.397,171.631
-1.224,0.239,0.308,17.09,67.383,177.856
-1.348,0.334,0.129,9.033,53.467,177.856
-1.529,0.441,0.117,-23.865,31.128,195.374
-1.717,0.682,0.307,-23.56,14.893,184.326
-1.941,0.801,0.525,41.077,-12.146,147.217
-2.141,0.677,0.712,98.755,-38.147,136.414
-2.251,0.615,0.851,112.976,-49.622,154.236
-2.247,0.799,0.996,99.792,-44.312,147.949
-2.203,0.952,1.151,84.229,-4.578,107.544
-2.208,0.852,1.091,65.674,59.265,64.636
-2.219,0.607,0.776,46.936,92.163,38.879
-2.201,0.402,0.485,39.978,88.257,27.832
-2.214,0.32,0.379,14.038,74.036,29.846
-2.237,0.393,0.408,-7.141,58.594,35.645
-2.215,0.534,0.453,-13.489,52.612,31.555
-2.161,0.605,0.403,-7.629,44.006,18.677
-2.056,0.616,0.333,10.925,25.696,0.793
-1.916,0.552,0.347,26.245,17.639,-25.818
-1.797,0.386,0.361,40.833,19.714,-46.448
-1.676,0.217,0.334,56.335,20.63,-55.481
-1.562,0.095,0.305,64.758,20.691,-57.129
-1.485,0.035,0.292,63.354,20.02,-52.002
-1.426,0.038,0.271,61.584,17.761,-45.654
-1.364,0.08,0.222,57.617,13.062,-40.649
-1.296,0.133,0.169,52.063,6.653,-38.086
-1.221,0.168,0.136,47.424,0.549,-38.879
-1.144,0.171,0.115,44.434,-2.747,-44.312
-1.081,0.145,0.071,35.706,-3.296,-49.438
-1.018,0.131,0.05,18.738,-3.601,-50.781
-0.976,0.1,0.046,10.254,4.15,-51.697
-0.959,0.049,-0.025,7.141,2.991,-41.321
-0.927,0.056,-0.072,-1.099,-13.733,-30.823
-0.903,0.084,-0.001,-8.362,-26.978,-28.198
-2.394,0.459,0.12,-25.208,-21.118,-12.146
-2.518,0.433,0.424,-26.062,-19.714,-29.053
-2.552,0.382,0.663,-19.226,0.061,-44.25
-2.538,0.395,0.693,-14.16,27.954,-52.917
-2.484,0.523,0.555,-16.174,51.88,-60.364
-2.361,0.672,0.331,-19.531,67.078,-78.796
-2.205,0.704,0.067,-41.26,64.941,-109.009
-2.065,0.581,-0.076,-62.134,45.044,-136.658
-1.963,0.387,-0.061,-37.231,15.198,-159.79
-1.882,0.197,0.054,-31.189,-11.108,-176.453
-1.79,0.038,0.21,-33.997,-17.029,-182.007
-1.674,-0.068,0.287,-51.331,-8.728,-184.631
-1.547,-0.17,0.28,-74.036,3.967,-183.167
-1.419,-0.286,0.23,-87.585,12.207,-176.453
-1.285,-0.381,0.162,-84.106,14.648,-165.405
-1.163,-0.413,0.094,-66.65,15.808,-148.499
-1.072,-0.373,0.025,-36.621,15.381,-132.446
-0.999,-0.306,-0.066,-14.038,14.587,-122.07
-0.94,-0.271,-0.175,3.174,8.728,-115.417
-0.884,-0.283,-0.266,21.79,-6.287,-111.816
-0.842,-0.327,-0.302,38.208,-26.611,-103.699
-0.801,-0.325,-0.291,40.527,-46.631,-85.876
-0.738,-0.251,-0.308,33.02,-60.913,-66.65
-0.656,-0.144,-0.321,20.569,-79.773,-56.885
-0.56,-0.037,-0.235,36.682,-87.341,-67.566
-0.506,-0.029,-0.128,40.222,-71.533,-86.426
-0.481,-0.116,-0.086,24.658,-50.964,-94.91
-0.436,-0.197,-0.076,-2.014,-33.264,-91.248
-0.378,-0.262,-0.067,-22.461,-16.724,-84.229
-0.311,-0.326,-0.083,-33.447,-4.883,-78.369
-0.239,-0.372,-0.132,-39.551,2.869,-73.975
-0.183,-0.399,-0.204,-49.866,5.981,-68.909
-0.168,-0.415,-0.287,-59.204,-1.404,-58.533
-0.176,-0.396,-0.333,-70.74,-19.836,-39.124
-0.181,-0.34,-0.312,-81.604,-41.504,-18.616
-0.177,-0.28,-0.218,-91.309,-62.073,-4.944
-0.19,-0.211,-0.047,-92.957,-70.679,-2.563
-0.207,-0.173,0.135,-76.477,-64.392,-8.545
-0.198,-0.186,0.204,-54.443,-46.448,-8.911
-0.174,-0.225,0.139,-48.401,-28.992,-5.92
-0.133,-0.314,0.025,-50.293,-25.33,-7.996
-0.108,-0.442,-0.01,-57.678,-38.513,-8.545
-0.083,-0.542,0.093,-60.852,-53.772,-4.822
-0.091,-0.609,0.267,-53.162,-51.208,7.996
-0.172,-0.604,0.415,-39.49,-31.494,37.109
-0.237,-0.469,0.441,-18.555,-4.15,68.848
-0.271,-0.292,0.325,2.686,24.353,85.449
-0.294,-0.166,0.12,18.25,36.682,87.219
-0.313,-0.095,-0.063,20.874,27.893,82.886
-0.335,-0.051,-0.109,12.268,-3.235,72.632
-0.336,-0.046,0.006,-4.517,-40.771,52.979
-0.329,-0.114,0.25,-39.368,-58.533,27.771
-0.321,-0.244,0.52,-65.491,-44.556,4.333
-0.294,-0.392,0.618,-85.327,-7.141,3.784
-0.287,-0.397,0.564,-93.262,29.053,17.517
-0.263,-0.29,0.462,-78.125,61.157,5.981
-0.24,-0.319,0.187,-61.035,82.703,4.944
-0.243,-0.351,-0.132,-45.776,59.387,30.09
-0.219,-0.201,-0.197,-16.113,26.978,45.715
-0.207,-0.032,-0.127,-1.831,14.587,27.161
-0.224,-0.051,-0.106,9.521,-5.432,-10.62
-0.236,-0.242,-0.037,13.733,-28.076,-31.738
-0.238,-0.42,0.095,8.301,-29.907,-30.09
-0.249,-0.491,0.155,3.662,-21.606,-22.095
-0.25,-0.476,0.12,5.371,-21.301,-14.893
-0.233,-0.427,0.062,15.198,-29.785,-13.672
-0.23,-0.404,0.036,27.588,-38.635,-13.672
-0.236,-0.395,0.046,36.804,-45.349,-7.263
-0.227,-0.377,0.095,50.537,-46.509,0.977
-0.231,-0.365,0.145,57.19,-31.433,17.029
-0.254,-0.326,0.126,46.509,-15.686,36.072
-0.276,-0.249,0.058,42.419,-14.832,44.556
-0.305,-0.192,0.017,44.373,-23.193,42.053
-0.338,-0.174,0.02,43.64,-31.067,36.926
-0.359,-0.176,0.039,38.574,-33.752,33.936
-0.37,-0.185,0.081,30.701,-34.485,34.424
-0.386,-0.2,0.149,25.33,-37.72,38.513
-0.382,-0.223,0.232,28.015,-42.542,44.006
-0.419,-0.246,0.314,47.485,-42.603,51.514
-0.542,-0.209,0.337,76.05,-31.128,69.031
-0.655,-0.079,0.243,85.266,-6.47,84.778
-0.706,0.056,0.064,80.627,10.437,80.139
-0.705,0.1,-0.104,80.933,7.69,58.655
-0.664,0.025,-0.167,73.303,-6.775,35.889
-0.614,-0.155,-0.108,57.922,-21.973,22.217
-0.585,-0.37,0.039,43.335,-29.724,20.996
-0.605,-0.547,0.205,41.321,-26.978,33.875
-0.694,-0.636,0.292,42.969,-13.062,59.021
-0.759,-0.626,0.281,35.889,4.944,86.487
-0.781,-0.533,0.237,22.095,17.517,109.009
-0.812,-0.36,0.209,6.104,23.926,129.333
-0.812,-0.135,0.182,-6.958,28.809,140.991
-0.799,0.085,0.159,-13.611,33.142,140.015
-0.8,0.235,0.132,-7.446,36.255,130.859
-0.802,0.282,0.084,3.174,40.222,119.385
-0.825,0.28,-0.002,14.648,45.471,111.877
-0.869,0.297,-0.138,14.343,49.866,109.741
-0.899,0.298,-0.277,14.709,43.823,100.769
-0.925,0.194,-0.33,24.292,20.142,85.693
-0.958,-0.011,-0.207,28.687,-10.559,79.529
-0.982,-0.17,0.043,29.297,-26.611,93.567
-1.008,-0.15,0.254,27.283,-22.339,121.46
-1.079,0.064,0.358,18.616,-10.925,146.606
-1.176,0.412,0.38,3.723,0.305,157.532
-1.251,0.789,0.34,-19.958,17.212,148.865
-1.286,1.032,0.233,-17.517,37.415,114.014
-1.33,1.022,0.078,16.052,44.312,66.772
-1.4,0.759,-0.011,51.819,25.879,22.583
-1.447,0.344,0.043,99.243,-6.653,-1.892
-1.499,-0.045,0.197,136.597,-32.593,5.066
-1.633,-0.232,0.436,141.296,-51.697,41.565
-1.778,-0.093,0.73,117.371,-51.819,88.074
-1.843,0.315,0.952,88.318,-14.771,112.183
-1.851,0.724,0.956,63.904,41.199,94.91
-1.848,0.868,0.736,59.387,85.449,53.528
-1.845,0.716,0.437,77.026,101.196,16.052
-1.837,0.438,0.217,88.135,95.581,-4.089
-1.819,0.182,0.112,82.581,88.501,-6.958
-1.811,0.022,0.048,65.369,82.886,2.502
-1.826,-0.046,0.006,40.771,71.899,15.991
-2.225,0.357,0.031,-2.258,37.476,-24.048
-2.272,0.353,-0.057,4.944,27.954,-45.105
-2.282,0.307,-0.103,5.066,15.015,-57.434
-2.258,0.282,-0.092,0.671,0.244,-69.641
-2.212,0.229,-0.035,-3.601,-12.085,-82.825
-2.15,0.12,0.035,-4.822,-20.813,-93.567
-2.067,-0.027,0.102,-10.254,-25.024,-98.083
-1.97,-0.179,0.161,-11.841,-25.391,-96.252
-1.863,-0.298,0.174,-16.785,-20.63,-87.463
-1.749,-0.363,0.125,-27.832,-15.625,-73.547
-1.636,-0.373,0.059,-41.26,-15.747,-57.678
-1.529,-0.332,0.009,-47.852,-21.057,-41.931
-1.428,-0.249,-0.028,-56.702,-27.039,-28.259
-1.333,-0.139,-0.048,-68.298,-32.349,-18.25
-1.243,-0.023,-0.053,-85.632,-35.706,-11.78
-1.15,0.06,-0.078,-100.647,-35.522,-10.01
-1.063,0.105,-0.138,-98.877,-38.757,-8.972
-0.994,0.178,-0.188,-81.543,-51.392,-7.08
-0.939,0.31,-0.188,-63.11,-69.458,-10.254
-0.888,0.407,-0.119,-57.739,-83.923,-22.034
-0.821,0.414,-0.021,-55.847,-83.191,-37.17
-0.77,0.365,0.053,-52.002,-71.045,-50.11
-0.731,0.322,0.097,-36.255,-57.678,-54.321
-0.661,0.327,0.096,-17.517,-43.213,-55.603
-0.593,0.343,0.028,4.517,-25.085,-61.951
-0.549,0.336,-0.109,14.038,-8.911,-76.172
-0.508,0.302,-0.265,10.437,-6.958,-91.37
-0.458,0.245,-0.353,-8.057,-17.578,-105.835
-0.414,0.16,-0.332,-25.818,-30.518,-121.582
-0.379,0.036,-0.236,-34.424,-39.673,-133.301
-0.357,-0.118,-0.109,-27.222,-46.021,-136.536
-0.338,-0.297,0.035,-13,-51.636,-132.202
-0.327,-0.471,0.17,5.798,-51.514,-117.31
-0.335,-0.556,0.246,0.977,-39.673,-87.524
-0.33,-0.489,0.24,-28.259,-18.433,-50.659
-0.304,-0.292,0.171,-58.35,0.061,-22.644
-0.268,-0.059,0.083,-73.486,11.475,-12.451
-0.231,0.108,0.004,-72.144,14.587,-18.616
-0.192,0.175,-0.046,-62.561,8.423,-34.729
-0.151,0.152,-0.061,-41.687,-7.507,-56.641
-0.11,0.073,-0.03,-28.32,-27.588,-77.576
-0.059,-0.035,0.055,-24.17,-40.039,-91.553
-0.009,-0.155,0.167,-16.479,-45.532,-96.375
0.014,-0.276,0.293,-5.554,-46.265,-90.454
0.02,-0.375,0.424,-1.526,-36.56,-72.083
0.018,-0.423,0.509,4.822,-15.32,-46.753
0.01,-0.394,0.506,11.963,8.423,-21.545
0.007,-0.302,0.422,14.343,26.062,-2.197
0.003,-0.201,0.3,13.123,33.569,10.681
-0.009,-0.122,0.176,19.348,27.954,19.226
0.003,-0.054,0.057,34.241,8.484,20.569
0.033,-0.012,-0.016,41.992,-17.639,14.526
0.064,-0.017,-0.002,41.26,-42.908,3.113
0.114,-0.014,0.127,35.095,-55.786,-16.968
0.13,-0.077,0.323,21.057,-38.391,-47.546
0.083,-0.266,0.409,15.686,-12.207,-52.551
0.048,-0.372,0.347,14.954,-2.747,-34.79
0.074,-0.344,0.327,8.301,-1.221,-21.057
0.093,-0.313,0.371,13.855,20.325,-14.771
0.074,-0.301,0.327,18.982,44.922,-9.277
0.068,-0.278,0.197,23.254,54.016,-2.563
0.068,-0.234,0.061,25.269,46.692,-0.183
0.061,-0.191,-0.03,17.578,32.043,-2.441
0.041,-0.172,-0.061,13.489,17.822,-6.836
0.004,-0.167,-0.076,15.869,6.653,-8.301
-0.046,-0.152,-0.103,14.16,-2.502,-4.761
-0.102,-0.131,-0.122,13.306,-12.329,-1.282
-0.179,-0.069,-0.129,24.719,-23.926,5.188
-0.235,0.053,-0.114,24.78,-32.898,10.803
-0.243,0.12,-0.056,26.489,-36.438,3.052
-0.251,0.052,0.019,47.913,-36.316,-10.254
-0.276,-0.082,0.062,76.416,-33.936,-18.738
-0.349,-0.214,0.085,92.773,-29.663,-18.372
-0.484,-0.319,0.131,103.699,-23.315,-6.348
-0.628,-0.368,0.17,110.168,-13.916,15.564
-0.71,-0.318,0.183,106.689,-1.16,33.997
-0.717,-0.218,0.174,110.107,12.512,35.339
-0.692,-0.192,0.141,114.502,22.827,23.437
-0.666,-0.263,0.091,115.967,29.114,13.611
-0.652,-0.408,0.032,110.718,32.593,13.123
-0.712,-0.597,0.011,109.741,28.564,25.818
-0.826,-0.681,0.027,116.028,21.729,56.396
-0.909,-0.606,0.069,89.172,22.278,88.928
-0.951,-0.502,0.175,67.139,38.818,118.896
-0.985,-0.421,0.248,50.72,70.984,147.217
-1.022,-0.343,0.187,19.592,88.989,170.166
-1.028,-0.263,0.061,-16.846,84.9,186.646
-1.048,-0.143,-0.03,-41.321,64.575,201.111
-1.136,0.005,0.004,-65.186,33.142,210.876
-1.27,0.057,0.235,-79.651,6.836,205.261
-1.427,-0.006,0.558,-54.871,5.676,196.96
-1.576,-0.042,0.75,-4.333,26.245,202.881
-1.638,0.037,0.772,2.808,58.044,222.534
-1.657,0.291,0.597,5.554,95.581,235.718
-1.728,0.548,0.319,11.963,94.299,202.881
-1.868,0.637,0.182,55.237,52.673,168.762
-2.02,0.622,0.241,76.538,-2.441,153.625
-2.115,0.563,0.497,75.928,-40.955,150.208
-2.158,0.577,0.88,80.627,-35.706,134.766
-2.204,0.565,1.125,75.439,16.418,109.985
-2.245,0.461,1.023,53.284,71.289,97.046
-2.212,0.403,0.714,34.302,94.849,91.431
-2.146,0.408,0.4,40.283,93.75,83.13
-2.106,0.406,0.15,37.476,75.256,70.313
-2.082,0.381,0.04,21.057,44.373,59.937
-2.059,0.411,0.091,8.85,16.052,53.955
-2.029,0.504,0.221,1.526,2.869,43.213
-1.986,0.57,0.336,-0.732,2.686,26.001
-1.925,0.556,0.415,2.014,6.042,8.057
-1.844,0.49,0.469,9.216,11.597,-6.592
-1.744,0.417,0.472,15.93,18.311,-18.005
-1.632,0.351,0.416,17.761,24.78,-27.71
-1.513,0.301,0.318,14.404,30.151,-34.424
-1.401,0.265,0.197,12.695,32.837,-40.71
-1.303,0.211,0.076,8.362,28.015,-46.509
-1.212,0.125,0.004,-3.235,20.386,-49.438
-1.131,0.027,-0.022,-6.042,13.245,-49.5
-1.067,-0.06,-0.034,-4.028,5.188,-45.166
-1.02,-0.1,-0.038,-5.127,-2.747,-35.217
-0.99,-0.054,-0.036,-8.728,-9.338,-24.17
-2.55,0.149,0.282,6.897,24.048,1.648
-2.737,0.346,0.198,-1.831,25.208,-9.399
-2.854,0.496,0.157,-11.78,21.851,-29.114
-2.883,0.542,0.129,-13.611,19.531,-51.392
-2.832,0.519,0.042,-21.545,15.93,-68.176
-2.71,0.473,-0.087,-41.687,6.104,-79.285
-2.529,0.454,-0.165,-56.091,-12.39,-85.388
-2.297,0.47,-0.179,-52.979,-35.4,-99.06
-2.062,0.407,-0.118,-54.443,-59.814,-119.69
-1.861,0.23,0.045,-56.152,-78.186,-132.263
-1.669,0.057,0.209,-61.218,-82.153,-134.399
-1.492,-0.073,0.287,-72.388,-74.158,-132.08
-1.337,-0.18,0.272,-83.679,-64.27,-125.671
-1.2,-0.269,0.205,-95.642,-59.204,-115.723
-1.089,-0.338,0.14,-105.286,-55.664,-100.769
-0.996,-0.333,0.075,-106.506,-53.833,-81.299
-0.916,-0.241,0.023,-106.873,-55.359,-66.956
-0.844,-0.134,0.045,-88.44,-59.57,-59.875
-0.826,-0.036,0.105,-53.955,-57.8,-54.138
-0.833,0.049,0.161,-37.231,-57.861,-53.894
-0.81,0.068,0.221,-13.794,-55.908,-58.411
-0.8,0.028,0.232,11.475,-49.438,-56.274
-0.801,0.01,0.148,28.87,-47.119,-41.931
-0.759,0.073,0.067,48.95,-55.481,-28.503
-0.7,0.163,0.059,80.017,-55.481,-27.527
-0.657,0.228,0.053,92.163,-40.771,-34.607
-0.613,0.282,0.027,75.134,-17.334,-44.556
-0.563,0.335,-0.021,37.537,7.141,-59.021
-0.474,0.337,-0.081,-6.47,23.01,-82.825
-0.368,0.27,-0.135,-25.696,24.536,-106.201
-0.268,0.221,-0.167,-48.157,19.775,-122.437
-0.166,0.222,-0.189,-68.848,16.724,-134.827
-0.082,0.214,-0.239,-84.839,5.371,-146.362
0.003,0.171,-0.331,-85.022,-23.56,-149.414
0.104,0.124,-0.377,-79.346,-61.035,-148.376
0.164,0.008,-0.285,-56.763,-85.632,-150.269
0.169,-0.229,-0.138,-17.944,-93.689,-145.691
0.149,-0.509,0.016,9.521,-88.013,-118.896
0.122,-0.711,0.158,20.813,-70.74,-71.655
0.1,-0.705,0.234,5.432,-47.607,-17.517
0.095,-0.49,0.222,-22.034,-27.527,22.339
0.092,-0.224,0.163,-45.41,-20.203,34.18
0.075,-0.056,0.152,-62.134,-24.353,27.161
0.05,0.02,0.204,-61.279,-25.146,15.869
0.037,0.057,0.259,-52.612,-18.372,6.653
0.043,0.056,0.294,-37.476,-9.888,-1.831
0.063,-0.02,0.313,-14.893,-4.761,-13.367
0.084,-0.2,0.341,3.967,-8.179,-20.569
0.093,-0.413,0.41,12.817,-13.733,-14.465
0.105,-0.531,0.471,23.315,-15.015,2.441
0.115,-0.525,0.49,23.804,-12.634,17.944
0.111,-0.455,0.461,24.475,-5.432,31.982
0.102,-0.365,0.364,26.611,0.183,43.213
0.101,-0.275,0.233,28.32,0.732,46.326
0.096,-0.217,0.133,23.315,-1.831,40.405
0.082,-0.198,0.105,19.409,-3.235,28.381
0.056,-0.217,0.107,6.592,0.916,17.273
0.036,-0.253,0.108,-6.165,4.639,16.663
0.032,-0.253,0.113,-9.399,7.629,21.912
0.03,-0.224,0.118,-10.742,7.629,28.015
0.035,-0.195,0.138,-1.831,6.47,30.212
0.044,-0.164,0.131,14.893,8.85,28.625
0.049,-0.128,0.073,16.968,11.353,27.405
0.027,-0.095,-0.001,15.381,8.24,23.437
-0.015,-0.089,-0.047,15.564,-2.319,12.695
-0.06,-0.122,-0.039,26.55,-15.015,1.648
-0.12,-0.172,0.019,37.292,-26.367,-1.16
-0.159,-0.198,0.109,42.358,-30.823,2.441
-0.18,-0.167,0.18,53.833,-25.146,7.324
-0.216,-0.097,0.19,61.707,-13.245,10.62
-0.244,-0.046,0.187,52.49,-2.563,9.338
-0.291,-0.045,0.228,59.265,5.188,8.606
-0.384,-0.063,0.26,80.688,14.038,12.085
-0.458,-0.082,0.243,94.91,27.161,14.771
-0.51,-0.099,0.182,105.042,40.588,15.808
-0.562,-0.117,0.122,100.403,47.119,18.799
-0.586,-0.143,0.113,94.666,47.363,23.865
-0.588,-0.16,0.147,89.294,48.34,31.372
-0.57,-0.174,0.182,82.703,54.382,39.368
-0.554,-0.257,0.194,79.651,61.646,50.903
-0.594,-0.39,0.174,82.397,69.885,77.759
-0.664,-0.403,0.126,54.382,73.303,114.746
-0.762,-0.28,0.104,21.362,66.895,142.395
-0.9,-0.157,0.169,-5.92,57.312,151.672
-0.99,-0.075,0.244,-13.428,53.162,157.349
-1.012,0.019,0.262,-30.212,52.307,171.509
-1.027,0.096,0.315,-57.19,50.537,185.425
-1.02,0.123,0.384,-60.852,52.185,192.261
-0.998,0.152,0.314,-48.218,62.317,197.632
-1.047,0.182,0.163,-48.157,66.589,205.872
-1.163,0.223,0.112,-42.297,52.673,217.041
-1.323,0.263,0.183,-22.461,33.386,225.464
-1.512,0.279,0.404,0.122,26.794,238.953
-1.7,0.402,0.625,27.161,46.57,241.882
-1.831,0.661,0.56,55.359,53.955,231.262
-1.843,0.935,0.327,65.857,31.555,219.543
-1.876,1.123,0.255,57.678,18.555,196.777
-2.028,1.142,0.392,26.55,28.442,171.57
-2.158,1.028,0.527,26.978,34.363,147.339
-2.206,0.891,0.588,43.213,35.278,126.282
-2.245,0.768,0.652,46.631,45.898,107.666
-2.285,0.673,0.676,39.429,72.144,94.91
-2.306,0.647,0.504,30.884,98.206,96.436
-2.264,0.743,0.167,33.875,98.572,98.755
-2.168,0.881,-0.146,30.151,83.557,80.566
-2.078,0.895,-0.371,24.231,60.12,49.988
-1.996,0.783,-0.487,13.55,29.785,26.245
-1.943,0.632,-0.423,2.625,-5.005,13.245
-1.915,0.517,-0.192,-2.808,-31.128,10.803
-1.889,0.471,0.074,-9.155,-35.828,10.986
-1.853,0.488,0.245,-18.188,-24.353,10.071
-1.791,0.524,0.298,-25.94,-9.827,4.089
-1.707,0.543,0.268,-24.292,-0.732,-4.822
-1.609,0.544,0.204,-26.428,2.563,-13.489
-1.507,0.531,0.142,-23.071,3.662,-21.973
-1.41,0.53,0.069,-17.944,3.113,-29.114
-1.316,0.532,0.013,-13.977,-1.892,-38.147
-1.235,0.494,0.005,0.244,-9.949,-49.622
-1.174,0.42,0.032,13.306,-15.625,-57.373
-1.126,0.348,0.079,20.386,-17.7,-59.753
-1.949,0.428,0.569,-95.154,-64.087,-25.879
-1.898,0.565,0.616,-92.957,-60.669,-41.26
-1.827,0.582,0.68,-85.999,-59.998,-61.096
-1.745,0.508,0.749,-82.886,-53.589,-76.233
-1.661,0.397,0.799,-81.482,-44.006,-82.886
-1.554,0.323,0.807,-85.388,-32.104,-80.994
-1.422,0.326,0.764,-100.647,-17.212,-78.064
-1.287,0.346,0.687,-116.211,-4.761,-83.679
-1.157,0.312,0.613,-123.23,3.723,-93.811
-1.045,0.227,0.55,-122.375,15.076,-98.511
-0.944,0.13,0.478,-113.281,25.757,-97.9
-0.831,0.045,0.387,-96.924,31.921,-99.304
-0.729,-0.058,0.27,-74.524,35.095,-103.455
-0.665,-0.172,0.143,-56.519,35.828,-102.051
-0.628,-0.239,0.035,-36.011,30.579,-92.59
-0.602,-0.229,-0.062,-15.625,19.165,-78.003
-0.59,-0.152,-0.14,1.648,-3.54,-59.57
-0.557,-0.001,-0.13,21.301,-30.457,-47.485
-0.499,0.157,-0.033,32.715,-37.17,-54.321
-0.448,0.211,0.045,41.382,-23.987,-79.163
-0.385,0.117,0.023,48.828,-6.531,-114.441
-0.319,-0.151,-0.082,52.856,4.211,-150.757
-0.288,-0.551,-0.201,52.307,5.249,-166.382
-0.282,-0.954,-0.275,36.56,-5.554,-155.212
-0.288,-1.249,-0.239,2.136,-23.682,-125.122
-0.315,-1.356,-0.078,-39.795,-36.621,-79.712
-0.334,-1.258,0.141,-76.782,-31.311,-30.579
-0.347,-1.057,0.303,-83.557,-11.475,7.202
-0.368,-0.854,0.35,-71.35,8.179,31.372
-0.381,-0.674,0.316,-54.016,19.958,47.424
-0.386,-0.51,0.242,-43.884,24.17,57.373
-0.398,-0.376,0.163,-42.297,22.095,59.875
-0.423,-0.299,0.116,-50.171,13.489,55.664
-0.448,-0.273,0.127,-71.106,2.075,49.255
-0.463,-0.262,0.194,-105.408,-4.761,43.335
-0.467,-0.226,0.306,-148.987,-2.747,38.696
-0.464,-0.158,0.399,-181.152,9.644,36.438
-0.442,-0.099,0.409,-204.529,23.926,43.335
-0.385,0.006,0.369,-211.548,30.823,51.697
-0.319,0.162,0.344,-201.782,34.363,42.542
-0.28,0.258,0.328,-168.274,39.307,22.888
-0.241,0.298,0.268,-106.445,44.067,4.944
-0.2,0.305,0.144,-37.659,45.105,-8.179
-0.177,0.303,0.015,11.658,36.011,-17.334
-0.137,0.287,-0.014,48.706,14.526,-29.114
-0.114,0.193,0.103,81.848,-6.226,-38.208
-0.129,0.052,0.301,99.121,-21.301,-41.565
-0.148,-0.056,0.489,86.06,-21.179,-35.461
-0.156,-0.092,0.597,57.434,-7.874,-22.4
-0.144,-0.066,0.584,30.396,7.69,-11.414
-0.118,-0.012,0.471,8.301,18.677,-5.005
-0.095,0.055,0.318,-9.216,21.301,-1.099
-0.082,0.13,0.188,-22.644,12.756,0.305
-0.067,0.19,0.144,-33.142,-2.563,-0.916
-0.063,0.23,0.177,-31.311,-13.916,-5.188
-0.068,0.253,0.226,-20.874,-15.869,-9.094
-0.056,0.263,0.262,-1.343,-10.986,-14.954
-0.043,0.235,0.266,29.48,-7.019,-25.757
-0.041,0.13,0.232,58.411,-9.705,-25.085
-0.028,0.063,0.212,75.745,-9.949,-14.16
-0.003,0.09,0.219,82.581,-1.16,-14.16
0.019,0.12,0.201,89.172,11.169,-22.034
0.028,0.122,0.135,101.685,18.494,-32.043
0.028,0.108,0.032,109.741,18.25,-38.635
-0.007,0.099,-0.073,115.295,9.827,-41.077
-0.057,0.082,-0.154,117.859,-5.127,-47.302
-0.093,0.04,-0.204,118.103,-21.912,-56.335
-0.125,-0.014,-0.225,120.544,-37.231,-61.829
-0.139,-0.089,-0.211,121.765,-50.781,-65.369
-0.152,-0.162,-0.173,128.174,-60.852,-63.538
-0.175,-0.162,-0.115,129.15,-67.81,-55.115
-0.187,-0.088,-0.054,129.517,-69.885,-48.462
-0.219,-0.04,-0.006,128.235,-69.092,-50.049
-0.311,-0.104,0.059,133.911,-71.106,-57.434
-0.406,-0.276,0.155,138.123,-71.228,-63.11
-0.469,-0.506,0.257,148.193,-62.5,-61.768
-0.515,-0.711,0.321,162.903,-44.189,-48.096
-0.539,-0.819,0.342,169.128,-22.339,-24.17
-0.55,-0.835,0.348,162.964,-2.258,3.845
-0.564,-0.785,0.364,158.203,12.939,35.645
-0.589,-0.677,0.36,157.166,28.32,69.702
-0.637,-0.525,0.303,140.015,38.94,95.276
-0.733,-0.42,0.263,102.051,38.757,106.262
-0.86,-0.393,0.32,58.899,33.447,114.075
-0.966,-0.373,0.438,33.63,32.654,124.084
-1.059,-0.388,0.554,26.062,31.372,128.479
-1.132,-0.493,0.68,25.757,29.968,130.798
-1.19,-0.584,0.788,29.663,30.334,149.963
-1.268,-0.531,0.894,-2.319,30.884,182.129
-1.374,-0.357,1.032,-8.057,37.476,211.853
-1.497,-0.148,1.134,3.662,61.462,233.704
-1.655,0.159,1.123,-10.864,114.746,258.728
-1.797,0.553,0.959,-9.644,143.677,245.605
-1.91,0.775,0.731,37.048,134.399,195.435
-2.034,0.687,0.6,73.792,97.29,148.804
-2.106,0.466,0.642,81.238,66.284,126.404
-2.131,0.3,0.784,45.471,68.848,118.286
-2.125,0.217,0.842,39.734,94.482,115.173
-2.114,0.188,0.717,41.138,112,106.14
-2.12,0.149,0.575,26.245,106.628,97.656
-2.106,0.129,0.568,18.433,95.154,92.407
-2.096,0.166,0.581,21.851,99.548,85.266
-2.087,0.253,0.487,18.311,111.084,80.933
-2.032,0.412,0.296,10.437,120.483,72.021
-1.944,0.557,0.079,10.742,117.615,44.617
-1.851,0.553,-0.084,5.371,102.905,7.446
-1.762,0.403,-0.18,13.489,79.956,-18.555
-1.675,0.203,-0.232,16.846,49.866,-28.503
-1.588,0.023,-0.188,6.165,19.348,-24.414
-1.512,-0.075,-0.054,3.845,-3.296,-16.296
-1.458,-0.102,0.1,11.536,-17.761,-12.085
-1.423,-0.109,0.238,18.555,-21.545,-6.531
-1.396,-0.064,0.325,17.029,-14.832,5.615
-1.365,0.069,0.326,10.071,-4.517,13
-1.328,0.225,0.242,4.578,-2.869,10.315
-1.271,0.329,0.167,5.005,-12.634,-3.662
-1.21,0.33,0.18,9.949,-11.78,-20.813
-1.168,0.259,0.167,-2.869,2.869,-26.794
-1.128,0.215,0.056,-18.555,5.432,-25.146
-1.08,0.195,-0.014,-26.978,-10.315,-25.574
-2.133,0.461,0.889,85.815,-16.357,222.473
-2.279,0.701,1.141,46.753,54.81,190.186
-2.372,0.833,0.921,11.108,121.033,165.344
-2.357,1.023,0.445,8.972,141.052,132.08
-2.343,1.064,0.067,4.15,140.869,83.496
-2.326,0.843,-0.188,-18.921,130.31,49.683
-2.271,0.533,-0.346,-41.931,103.455,47.974
-2.187,0.348,-0.359,-40.039,56.946,55.237
-2.103,0.287,-0.21,-16.785,8.118,46.753
-2.044,0.223,0.003,-0.488,-14.893,36.194
-1.991,0.208,0.147,-2.319,-7.568,35.95
-1.931,0.305,0.143,-6.47,5.737,35.339
-1.848,0.458,0.067,-3.357,6.47,25.085
-1.754,0.557,0.013,15.015,4.761,6.348
-1.673,0.563,-0.098,31.677,-5.615,-6.531
-1.554,0.54,-0.18,25.269,-36.56,-16.724
-1.399,0.489,-0.062,24.353,-57.739,-36.072
-1.295,0.345,0.111,21.484,-50.537,-53.528
-1.23,0.172,0.174,18.433,-39.246,-55.786
-1.166,0.073,0.172,15.564,-40.222,-46.204
-1.109,0.072,0.239,6.287,-43.762,-35.461
-1.066,0.124,0.373,-0.732,-34.363,-32.104
-1.033,0.163,0.45,1.099,-17.822,-34.18
-0.997,0.171,0.422,6.409,-2.075,-34.058
-0.962,0.176,0.348,8.118,6.897,-31.067
-0.935,0.212,0.292,3.601,14.343,-27.1
-0.916,0.293,0.228,-2.625,27.466,-23.376
-0.894,0.365,0.129,-6.042,35.461,-27.222
-0.876,0.356,0.04,-2.686,31.067,-37.17
-0.869,0.279,-0.01,-4.15,20.142,-42.664
-0.868,0.208,0.001,-11.719,10.132,-38.513
-0.864,0.184,0.057,-16.357,4.578,-31.555
-0.862,0.203,0.101,-19.653,5.737,-27.161
-0.867,0.26,0.104,-28.015,11.108,-23.804
-0.869,0.323,0.087,-33.813,14.099,-23.987
-0.87,0.339,0.089,-33.386,10.803,-29.236
-0.879,0.302,0.122,-25.146,6.836,-33.813
-0.885,0.264,0.153,-18.25,8.057,-32.532
-0.877,0.245,0.16,-17.944,14.16,-30.518
-0.863,0.225,0.135,-11.841,19.409,-29.297
-0.843,0.186,0.076,-4.883,21.484,-27.771
-0.838,0.145,0.025,-0.61,19.226,-24.231
-0.859,0.181,-0.007,2.502,13.733,-14.832
-0.868,0.279,-0.023,-1.953,9.583,-10.864
-0.858,0.313,-0.029,5.188,7.202,-19.104
-0.855,0.251,-0.046,15.503,4.089,-26.55
-0.862,0.15,-0.051,18.555,-0.427,-26.062
-0.873,0.078,-0.027,17.639,-6.409,-19.348
-0.886,0.08,0.007,15.93,-11.169,-11.902
-0.905,0.137,0.031,14.648,-12.329,-7.385
-0.926,0.186,0.041,16.724,-12.207,-7.935
-0.941,0.19,0.048,16.846,-11.719,-10.864
-0.945,0.168,0.058,14.587,-10.864,-10.803
-0.937,0.146,0.064,12.939,-9.766,-9.399
-0.922,0.122,0.061,12.878,-9.338,-8.301
-0.912,0.103,0.048,13.184,-11.047,-5.981
-0.914,0.111,0.042,14.771,-14.343,-2.38
-0.925,0.143,0.053,16.846,-18.555,-0.916
-0.94,0.173,0.085,14.404,-21.606,-1.526
-0.953,0.189,0.131,13.916,-21.606,-2.625
-0.961,0.185,0.179,12.939,-20.63,-4.944
-0.966,0.159,0.23,12.939,-18.066,-7.202
-0.974,0.143,0.264,10.742,-11.23,-5.981
-0.982,0.166,0.255,6.836,-4.089,-2.625
-0.984,0.213,0.223,4.883,-1.099,-2.136
-0.977,0.239,0.195,5.798,-0.549,-5.554
-0.963,0.217,0.174,7.202,-1.099,-10.376
-0.948,0.156,0.158,6.775,-1.953,-12.939
-0.938,0.092,0.145,6.104,-2.747,-11.841
-0.939,0.056,0.138,2.93,-3.662,-7.385
-0.947,0.055,0.145,-1.77,-4.333,-1.892
-0.958,0.08,0.163,-3.418,-5.676,1.648
-0.965,0.121,0.183,-6.653,-5.371,2.563
-0.964,0.145,0.198,-9.338,-2.747,0.793
-0.972,0.153,0.21,-6.531,0.732,-0.793
-0.979,0.169,0.2,0.854,2.93,-0.183
-0.973,0.169,0.184,0.977,2.747,-3.052
-0.967,0.137,0.177,4.028,2.136,-5.615
-0.963,0.099,0.167,2.991,1.648,-4.456
-0.968,0.088,0.158,1.709,1.648,-0.366
-0.975,0.112,0.151,1.404,0.977,2.991
-0.974,0.143,0.138,3.357,0.488,3.113
-0.969,0.162,0.115,5.188,0.122,1.77
-0.97,0.163,0.097,6.287,-1.282,0.061
-0.979,0.162,0.096,5.493,-3.174,-0.732
-0.983,0.169,0.106,4.517,-4.272,-0.488
-0.975,0.176,0.109,6.287,-4.272,-1.648
-0.962,0.174,0.095,8.789,-3.479,-4.272
-0.956,0.163,0.076,8.789,-3.052,-6.348
-0.959,0.136,0.087,5.371,-5.676,-7.324
-0.958,0.103,0.127,4.272,-8.423,-5.981
-0.953,0.082,0.167,4.395,-7.324,-3.601
-0.952,0.071,0.191,3.967,-3.967,-1.709
-0.955,0.073,0.197,2.502,-0.305,0.916
-0.959,0.091,0.186,2.991,2.625,3.235
-0.966,0.121,0.158,2.991,4.639,4.7
-0.972,0.164,0.119,2.808,6.287,5.371
-0.976,0.202,0.086,2.93,5.92,3.54
-0.979,0.206,0.074,4.333,3.113,-0.427
-0.979,0.193,0.072,5.676,0.854,-3.357
-0.975,0.168,0.067,4.944,-0.671,-5.737
-0.976,0.12,0.073,3.418,-3.296,-7.69
-0.988,0.065,0.106,0.61,-6.958,-6.714
-1.006,0.032,0.162,-2.502,-9.216,-2.686
-1.027,0.034,0.224,-3.601,-8.179,1.953
-1.051,0.071,0.263,-0.793,-3.113,5.371
-1.076,0.137,0.252,0,4.272,6.592
-1.1,0.213,0.201,1.343,9.949,4.761
-1.111,0.256,0.141,2.869,11.108,-1.038
-1.115,0.232,0.102,5.493,8.667,-9.521
-1.126,0.156,0.094,6.47,5.31,-14.526
-1.146,0.083,0.112,5.676,1.953,-14.221
-1.172,0.044,0.155,3.601,-0.793,-11.719
-1.206,0.021,0.224,4.883,-1.16,-10.62
-1.252,-0.009,0.29,10.437,3.296,-11.23
-1.318,-0.025,0.299,21.729,12.512,-10.193
-1.406,0.003,0.212,27.405,20.691,-9.766
-1.511,0.041,0.091,19.348,23.56,-13.245
-1.637,0.029,-0.018,28.259,17.334,-21.118
-1.79,-0.028,-0.139,37.476,3.784,-27.283
-2.33,0.317,0.3,-8.301,-57.983,-26.978
-2.34,0.305,0.491,0.366,-46.814,-48.157
-2.294,0.192,0.58,6.348,-31.86,-65.186
-2.207,0.022,0.592,-5.981,-14.771,-73.059
-2.087,-0.169,0.547,-26.855,-8.484,-72.205
-1.94,-0.309,0.479,-53.467,-9.827,-60.12
-1.794,-0.343,0.432,-76.172,-13.184,-39.49
-1.649,-0.279,0.414,-90.576,-18.677,-21.24
-1.509,-0.197,0.422,-102.966,-22.766,-11.841
-1.39,-0.153,0.456,-119.873,-23.987,-5.066
-1.29,-0.123,0.509,-140.076,-22.827,6.409
-1.19,-0.076,0.539,-161.438,-17.334,18.311
-1.089,-0.057,0.523,-190.125,-9.827,27.1
-0.982,-0.089,0.479,-224.365,-3.54,37.354
-0.871,-0.105,0.402,-247.742,-0.427,48.035
-0.785,-0.087,0.32,-259.888,-3.54,57.373
-0.737,-0.04,0.301,-250.183,-14.893,61.89
-0.722,0.016,0.381,-220.276,-25.208,57.312
-0.733,0.033,0.529,-177.063,-22.827,47.363
-0.757,0.009,0.668,-136.841,-3.052,39.307
-0.766,-0.027,0.713,-100.83,32.593,33.325
-0.751,-0.054,0.611,-69.397,71.411,29.419
-0.74,-0.042,0.399,-35.645,96.497,30.64
-0.743,0.005,0.166,-16.052,103.21,25.085
-0.74,0.016,-0.024,-4.211,99.426,8.667
-0.738,-0.029,-0.164,14.587,88.135,-7.019
-0.758,-0.09,-0.243,25.574,72.144,-12.573
-0.774,-0.119,-0.252,27.771,52.979,-10.132
-0.793,-0.06,-0.216,18.066,35.767,-0.122
-0.824,0.098,-0.144,6.348,23.926,15.93
-0.859,0.337,-0.069,-8.85,16.968,31.738
-0.905,0.606,0.031,-38.94,14.771,36.865
-0.934,0.832,0.177,-46.692,15.686,29.236
-0.903,1.003,0.309,-43.579,21.301,7.568
-0.822,1.096,0.38,-37.659,34.851,-29.968
-0.73,1.053,0.378,-25.269,51.208,-70.313
-0.633,0.891,0.31,-11.536,59.265,-100.098
-0.525,0.665,0.221,-24.78,61.89,-113.342
-0.422,0.433,0.15,-58.533,65.125,-111.45
-0.325,0.249,0.081,-109.009,71.655,-102.112
-0.238,0.128,-0.012,-149.719,79.041,-90.088
-0.164,0.069,-0.122,-173.95,78.674,-79.956
-0.117,0.044,-0.197,-174.744,61.279,-78.735
-0.103,-0.009,-0.15,-157.959,31.738,-83.679
-0.111,-0.114,0.04,-115.662,9.949,-83.069
-0.134,-0.23,0.269,-61.523,10.681,-72.632
-0.149,-0.311,0.429,-16.663,31.799,-54.993
-0.153,-0.344,0.453,22.766,59.631,-37.415
-0.15,-0.32,0.335,43.884,80.75,-23.01
-0.14,-0.248,0.161,42.725,88.257,-10.376
-0.138,-0.141,0.02,41.321,82.275,-0.488
-0.147,-0.028,-0.059,37.903,70.557,2.258
-0.162,0.052,-0.088,29.358,63.049,-2.563
-0.175,0.091,-0.105,21.667,60.73,-6.653
-0.168,0.086,-0.115,17.273,58.167,-10.01
-0.162,0.045,-0.112,19.897,52.368,-14.038
-0.168,-0.001,-0.1,15.137,45.959,-15.808
-0.174,-0.011,-0.097,4.761,43.762,-14.832
-0.188,0.015,-0.125,-2.441,42.114,-16.663
-0.198,0.034,-0.193,-10.498,38.635,-22.095
-0.206,0.026,-0.279,-10.681,32.349,-26.672
-0.21,0.024,-0.37,-2.93,24.536,-26.428
-0.191,0.029,-0.453,1.16,14.465,-27.466
-0.168,0.016,-0.505,6.348,1.038,-30.701
-0.154,-0.017,-0.514,12.878,-15.869,-32.166
-0.143,-0.046,-0.474,20.325,-32.349,-28.748
-0.132,-0.056,-0.409,31.799,-45.898,-22.888
-0.149,-0.057,-0.337,45.105,-58.35,-17.334
-0.206,-0.054,-0.267,58.96,-67.322,-11.475
-0.259,-0.035,-0.223,69.946,-71.045,-7.202
-0.306,-0.007,-0.22,81.116,-75.439,-6.592
-0.341,0.036,-0.215,87.524,-83.069,-7.996
-0.373,0.09,-0.174,90.332,-86.304,-13.306
-0.407,0.158,-0.153,91.553,-85.999,-15.076
-0.405,0.257,-0.159,82.031,-84.961,-16.907
-0.406,0.304,-0.166,77.881,-84.961,-27.161
-0.472,0.254,-0.185,86.243,-89.844,-37.292
-0.585,0.174,-0.195,100.952,-100.464,-39.185
-0.657,0.119,-0.159,110.352,-108.154,-40.527
-0.671,0.069,-0.088,115.54,-107.239,-46.753
-0.673,0.007,-0.017,123.169,-99.854,-53.65
-0.666,-0.031,0.011,131.653,-90.027,-55.908
-0.642,-0.04,-0.012,130.981,-81.543,-54.077
-0.618,-0.074,-0.041,123.047,-79.224,-53.711
-0.634,-0.156,-0.025,117.859,-82.825,-52.917
-0.691,-0.266,0.03,126.892,-87.463,-47.607
-0.734,-0.363,0.092,140.747,-90.637,-38.452
-0.767,-0.419,0.156,140.564,-90.576,-28.198
-0.806,-0.447,0.237,121.948,-84.29,-10.803
-0.838,-0.42,0.318,102.478,-74.829,11.292
-0.851,-0.345,0.407,85.144,-73.181,26.123
-0.835,-0.321,0.542,79.712,-73.975,28.076
-0.807,-0.401,0.688,87.83,-65.796,23.743
-0.797,-0.545,0.775,87.097,-45.532,25.879
-0.814,-0.648,0.752,84.351,-17.334,42.48
-0.86,-0.661,0.644,67.017,5.493,67.2
-0.926,-0.61,0.536,50.354,13.062,88.257
-0.973,-0.512,0.5,57.8,3.662,101.746
-1.021,-0.36,0.543,75.806,-12.878,115.54
-1.071,-0.189,0.777,61.951,-16.113,124.695
-1.112,-0.132,1.099,80.017,-2.747,107.3
-1.142,-0.201,1.223,120.605,16.296,85.571
-1.172,-0.357,1.134,158.569,42.664,86.914
-1.21,-0.463,0.885,156.677,66.895,114.868
-1.215,-0.353,0.61,117.126,75.684,138.367
-1.259,-0.205,0.455,82.275,70.679,141.479
-1.393,-0.152,0.499,62.5,52.795,145.081
-1.548,-0.099,0.748,39.001,44.8,150.33
-1.684,0.019,0.961,33.63,57.495,149.231
-1.793,0.207,0.961,16.357,76.721,145.63
-1.853,0.403,0.845,-10.498,93.506,135.986
-1.875,0.54,0.662,-28.137,106.995,118.286
-1.882,0.609,0.416,-43.945,107.056,96.008
-1.883,0.59,0.205,-48.889,82.092,78.125
-1.87,0.508,0.132,-35.461,45.288,69.702
-1.834,0.432,0.237,-33.203,18.738,63.232
-1.794,0.362,0.426,-20.996,14.221,51.575
-1.775,0.265,0.52,-6.226,25.513,38.086
-1.759,0.168,0.483,-2.686,35.034,31.311
-1.724,0.126,0.411,-7.751,35.706,32.898
-2.166,0.488,0.14,-14.832,15.137,-40.1
-2.19,0.522,0.15,-21.545,5.798,-66.711
-2.178,0.424,0.231,-23.865,-0.793,-93.262
-2.137,0.252,0.295,-26.428,-0.122,-112.976
-2.068,0.074,0.297,-35.4,3.235,-124.939
-1.97,-0.061,0.243,-39.246,3.784,-130.127
-1.853,-0.151,0.172,-44.739,-1.526,-132.629
-1.736,-0.252,0.149,-52.063,-10.986,-133.362
-1.624,-0.372,0.189,-62.683,-16.357,-129.089
-1.518,-0.474,0.228,-65.002,-15.93,-121.582
-1.432,-0.542,0.221,-69.397,-12.878,-108.826
-1.365,-0.592,0.218,-80.2,-12.817,-92.102
-1.304,-0.604,0.213,-90.271,-10.62,-76.721
-1.239,-0.604,0.196,-107.422,-5.371,-68.726
-1.201,-0.63,0.169,-109.985,4.517,-60.974
-1.177,-0.645,0.106,-115.906,9.583,-49.988
-1.137,-0.629,0.03,-111.633,7.629,-37.964
-1.121,-0.576,-0.024,-99.609,-0.122,-25.94
-1.12,-0.481,-0.026,-85.388,-11.719,-15.686
-1.109,-0.369,0.008,-67.139,-18.311,-10.62
-1.088,-0.29,0.045,-48.096,-17.273,-12.512
-1.061,-0.263,0.056,-24.231,-12.878,-16.174
-1.036,-0.255,0.047,1.343,-11.292,-16.357
-1.003,-0.205,0.021,21.667,-14.648,-11.841
-0.951,-0.115,-0.025,20.203,-16.785,-6.226
-0.881,-0.05,-0.078,5.493,-15.991,-5.981
-0.812,-0.051,-0.155,3.113,-16.846,-7.446
-0.766,-0.082,-0.24,3.662,-28.076,-3.357
-0.692,-0.046,-0.255,7.08,-47.363,-4.089
-0.583,0.027,-0.188,9.399,-52.673,-21.484
-0.492,0.047,-0.123,-0.61,-43.091,-42.542
-0.398,0.012,-0.091,-17.273,-34.119,-60.12
-0.281,-0.061,-0.069,-36.987,-31.494,-71.228
-0.164,-0.156,-0.054,-58.289,-33.813,-72.632
-0.063,-0.24,-0.047,-76.477,-39.978,-63.11
0.03,-0.273,-0.036,-100.647,-46.204,-46.936
0.115,-0.252,-0.014,-123.657,-47.729,-31.006
0.17,-0.195,-0.003,-138.611,-45.41,-20.447
0.188,-0.141,-0.016,-147.461,-40.894,-16.968
0.15,-0.111,-0.035,-139.587,-39.978,-15.381
0.079,-0.131,-0.091,-124.39,-51.147,0.732
0.063,-0.12,-0.096,-122.253,-73.547,34.851
0.078,-0.024,0.044,-117.065,-87.646,51.941
0.045,0.031,0.256,-104.248,-89.294,47.729
-0.009,0.011,0.447,-87.28,-81.36,41.626
-0.054,-0.005,0.566,-71.411,-65.43,38.33
-0.089,0.021,0.608,-46.509,-44.25,35.034
-0.116,0.088,0.563,-19.287,-22.766,32.104
-0.147,0.17,0.472,-1.648,-9.521,29.297
-0.178,0.232,0.414,13.062,-4.578,26.794
-0.204,0.278,0.407,26.428,-2.319,26.672
-0.212,0.319,0.416,33.752,1.648,24.78
-0.209,0.353,0.415,36.743,7.507,20.081
-0.214,0.391,0.382,37.354,12.756,13.977
-0.217,0.408,0.326,30.518,15.869,3.357
-0.22,0.368,0.27,25.269,17.334,-8.728
-0.219,0.3,0.213,21.423,17.883,-15.686
-0.196,0.255,0.168,18.188,16.663,-19.653
-0.156,0.234,0.133,19.165,14.221,-23.437
-0.12,0.208,0.106,19.104,9.277,-27.222
-0.093,0.172,0.128,20.203,0.61,-28.748
-0.071,0.143,0.179,28.625,-6.409,-28.931
-0.045,0.127,0.208,30.457,-10.315,-25.94
-0.018,0.119,0.202,33.02,-11.536,-20.752
-0.004,0.132,0.212,44.678,-11.169,-18.433
-0.035,0.141,0.25,75.745,-1.526,-21.729
-0.095,0.094,0.207,101.624,17.151,-31.921
-0.124,0.034,0.043,113.831,30.762,-42.725
-0.109,0.021,-0.157,113.831,30.945,-49.255
-0.081,0.031,-0.303,100.464,14.465,-54.077
-0.052,0.041,-0.354,88.074,-12.878,-58.533
-0.024,0.035,-0.305,77.393,-39.917,-65.063
-0.046,-0.026,-0.173,73.792,-57.556,-70.862
-0.112,-0.125,-0.025,86.182,-62.195,-72.998
-0.165,-0.236,0.096,102.722,-57.312,-72.998
-0.21,-0.354,0.201,127.197,-47.974,-71.106
-0.259,-0.451,0.26,157.959,-35.767,-63.782
-0.3,-0.537,0.304,160.095,-22.217,-53.467
-0.337,-0.62,0.353,161.438,-7.08,-40.833
-0.379,-0.65,0.353,161.316,9.277,-22.827
-0.424,-0.617,0.317,148.499,24.597,-1.099
-0.463,-0.586,0.275,136.475,33.875,17.334
-0.498,-0.641,0.253,126.221,37.964,30.579
-0.56,-0.751,0.229,125.427,43.518,48.706
-0.645,-0.798,0.14,124.878,46.509,80.505
-0.727,-0.723,0.035,93.75,41.565,118.164
-0.823,-0.578,0.03,53.101,31.311,155.212
-0.912,-0.452,0.151,19.287,23.01,180.664
-0.95,-0.349,0.3,1.221,13.977,195.374
-0.987,-0.258,0.457,-27.1,4.944,207.764
-1.095,-0.224,0.668,-38.635,0.305,216.309
-1.274,-0.216,0.813,-12.024,7.019,223.511
-1.468,-0.106,0.815,-5.188,21.851,239.502
-1.596,0.093,0.802,-43.03,23.315,265.442
-1.777,0.339,1.019,-41.26,35.461,280.701
-1.937,0.617,1.273,13.794,74.463,259.766
-2.009,0.736,1.067,112.732,108.887,215.942
-2.125,0.672,0.628,127.625,95.032,183.594
-2.264,0.616,0.428,87.708,60.974,175.903
-2.378,0.68,0.467,21.729,36.438,179.016
-2.413,0.823,0.567,13.611,20.02,164.612
-2.43,0.886,0.67,29.724,10.986,131.348
-2.432,0.837,0.759,34.729,8.362,95.764
-2.391,0.722,0.842,27.771,9.888,67.932
-2.323,0.595,0.937,21.973,24.414,55.481
-2.215,0.547,0.926,18.494,49.438,48.096
-2.079,0.54,0.755,23.56,63.538,30.029
-1.952,0.465,0.544,29.297,59.143,8.24
-1.84,0.337,0.412,27.832,47.913,-4.272
-1.741,0.254,0.347,26.55,41.199,-5.554
-1.648,0.25,0.289,23.437,41.504,-4.395
-1.567,0.273,0.216,24.292,43.03,-5.432
-1.509,0.299,0.141,20.63,41.504,-4.578
-1.46,0.352,0.077,17.822,33.752,-3.052
-1.4,0.43,0.022,10.925,22.4,-5.31
-1.326,0.5,0.005,5.554,5.249,-15.259
-1.253,0.503,0.063,1.648,-2.197,-31.311
-1.194,0.418,0.13,-6.287,3.052,-40.955
-1.133,0.331,0.131,-11.23,5.981,-39.307
-1.066,0.297,0.108,-11.963,2.075,-36.133
-2.127,0.111,0.243,-8.362,-20.203,-33.936
-2.123,0.043,0.257,-8.85,-20.935,-37.109
-2.115,0.008,0.255,-14.099,-23.254,-37.17
-2.134,0.05,0.244,-14.526,-29.358,-34.668
-2.194,0.259,0.205,-27.039,-35.461,-28.137
-2.192,0.538,0.193,-61.035,-39.551,-32.837
-2.119,0.655,0.254,-86.365,-38.574,-52.49
-2.076,0.599,0.354,-89.783,-39.368,-70.74
-1.989,0.534,0.42,-90.454,-35.217,-86.487
-1.826,0.449,0.41,-75.562,-27.649,-110.291
-1.674,0.28,0.33,-58.777,-19.287,-130.31
-1.517,0.077,0.203,-62.5,-17.395,-139.587
-1.356,-0.14,0.102,-79.834,-22.705,-136.108
-1.227,-0.338,0.072,-98.755,-31.86,-118.652
-1.137,-0.424,0.098,-114.685,-41.077,-91.37
-1.07,-0.359,0.136,-138.855,-43.762,-61.523
-1.001,-0.218,0.161,-160.95,-39.001,-41.199
-0.937,-0.099,0.166,-169.8,-29.358,-36.56
-0.896,-0.048,0.156,-165.527,-18.677,-40.71
-0.873,-0.045,0.137,-141.602,-13.367,-46.631
-0.86,-0.039,0.116,-107.971,-14.099,-50.049
-0.833,-0.035,0.125,-81.116,-13.794,-57.312
-0.788,-0.07,0.134,-46.082,-4.944,-67.749
-0.748,-0.142,0.078,-5.066,7.385,-76.111
-0.714,-0.214,-0.043,27.161,13.55,-77.026
-0.692,-0.267,-0.172,39.978,8.179,-71.594
-0.644,-0.305,-0.258,36.316,-0.61,-63.477
-0.57,-0.338,-0.327,33.936,-11.475,-53.467
-0.499,-0.371,-0.409,25.757,-27.588,-42.419
-0.406,-0.38,-0.43,12.817,-49.316,-37.781
-0.323,-0.39,-0.333,4.578,-61.096,-43.091
-0.293,-0.448,-0.201,-0.244,-58.472,-48.035
-0.276,-0.525,-0.114,-5.31,-51.514,-48.584
-0.242,-0.566,-0.083,-4.7,-45.227,-42.725
-0.216,-0.556,-0.099,-6.226,-44.128,-31.372
-0.182,-0.524,-0.113,-25.879,-50.842,-14.771
-0.128,-0.472,-0.09,-50.049,-59.875,7.202
-0.078,-0.379,-0.032,-72.388,-67.932,30.151
-0.042,-0.239,0.054,-92.163,-73.608,49.377
-0.015,-0.08,0.142,-109.863,-74.768,63.232
0.011,0.05,0.202,-119.141,-74.402,73.853
0.022,0.151,0.247,-131.592,-73.486,81.055
0.018,0.22,0.303,-142.944,-74.585,86.304
0.008,0.255,0.379,-147.766,-77.515,92.041
-0.01,0.284,0.467,-152.466,-76.355,95.52
-0.047,0.33,0.55,-151.672,-74.341,97.656
-0.092,0.405,0.652,-140.991,-75.562,99.792
-0.124,0.518,0.773,-118.958,-71.411,95.459
-0.145,0.642,0.883,-91.187,-55.664,77.026
-0.164,0.731,0.929,-47.363,-28.137,50.964
-0.184,0.768,0.854,-8.179,1.099,24.17
-0.187,0.757,0.705,11.353,18.738,0.427
-0.166,0.703,0.577,20.63,22.827,-19.653
-0.148,0.626,0.534,25.696,20.447,-35.339
-0.127,0.548,0.571,31.677,20.874,-45.837
-0.094,0.468,0.623,45.288,29.175,-55.176
-0.056,0.371,0.621,62.744,45.166,-63.904
-0.016,0.27,0.528,77.759,61.035,-68.909
0.026,0.212,0.368,82.764,65.857,-69.153
0.067,0.188,0.223,80.078,54.749,-68.909
0.087,0.153,0.175,73.975,33.569,-70.984
0.098,0.11,0.229,69.397,16.907,-72.388
0.12,0.088,0.295,67.566,14.954,-71.167
0.13,0.081,0.307,66.772,18.982,-68.848
0.108,0.057,0.282,72.266,18.188,-67.566
0.072,0.007,0.237,78.552,14.16,-68.237
0.037,-0.048,0.161,84.045,12.085,-69.031
0.014,-0.082,0.058,85.266,8.606,-70.557
-0.002,-0.097,-0.018,80.017,0.549,-74.036
-0.028,-0.123,-0.013,73.73,-7.141,-76.355
-0.072,-0.171,0.058,66.406,-12.268,-75.195
-0.123,-0.227,0.146,65.125,-14.771,-72.51
-0.156,-0.282,0.209,68.909,-12.024,-69.885
-0.19,-0.352,0.228,80.383,-5.859,-68.604
-0.24,-0.443,0.226,96.008,-0.244,-66.406
-0.315,-0.52,0.237,121.094,2.991,-58.289
-0.428,-0.553,0.241,151.428,6.897,-45.959
-0.512,-0.561,0.233,172.058,12.878,-37.537
-0.542,-0.559,0.227,182.129,20.996,-34.546
-0.551,-0.575,0.242,182.068,29.968,-30.212
-0.54,-0.65,0.286,189.758,32.654,-21.484
-0.541,-0.787,0.347,194.031,31.738,-7.202
-0.586,-0.907,0.403,181.519,36.377,12.939
-0.642,-0.946,0.372,164.429,46.387,41.077
-0.691,-0.912,0.287,129.883,53.467,75.562
-0.735,-0.789,0.241,95.337,56.58,112.427
-0.78,-0.571,0.236,67.505,57.251,142.456
-0.841,-0.367,0.29,42.297,51.758,157.41
-0.91,-0.29,0.411,39.185,42.847,157.654
-1.002,-0.271,0.555,49.072,37.354,158.752
-1.134,-0.213,0.706,39.856,40.649,169.861
-1.283,-0.124,0.829,35.278,51.147,177.734
-1.448,-0.081,0.804,31.555,64.697,186.34
-1.556,0.114,0.81,-6.836,80.75,185.303
-1.757,0.256,0.77,7.507,102.112,167.48
-2.007,0.29,0.56,-8.85,85.327,195.679
-2.102,0.619,0.597,-14.954,62.744,216.003
-2.187,0.912,0.784,11.475,77.82,189.087
-2.297,0.909,0.704,51.514,83.191,156.738
-2.329,0.806,0.528,77.942,47.791,135.925
-2.243,0.765,0.557,80.994,8.179,97.046
-2.201,0.59,0.804,71.96,9.094,50.781
-2.189,0.355,0.927,19.165,65.674,42.603
-2.088,0.331,0.701,-1.587,99.426,34.058
-2.021,0.321,0.434,-11.902,110.962,20.203
-1.999,0.237,0.268,-33.081,105.896,23.193
-1.939,0.212,0.182,-50.476,86.121,34.668
-1.847,0.27,0.182,-40.588,58.472,35.828
-1.74,0.284,0.262,-27.466,45.166,23.01
-1.643,0.199,0.301,-17.212,55.969,11.414
-1.553,0.12,0.172,-6.592,62.012,9.216
-1.467,0.127,0.009,3.662,50.049,11.719
-1.398,0.18,-0.05,12.939,29.419,9.521
-1.348,0.206,-0.01,17.944,12.695,2.991
-1.307,0.195,0.066,16.846,5.615,-2.38
-1.264,0.171,0.129,16.174,3.784,-5.31
-1.222,0.158,0.161,13.611,3.479,-6.653
-1.185,0.157,0.18,5.676,5.005,-6.104
-1.152,0.167,0.178,-1.038,7.812,-5.31
-1.119,0.204,0.141,-10.681,9.888,-5.005
-2.098,0.464,0.435,-9.644,22.278,-17.578
-2.175,0.561,0.366,-2.686,31.555,-41.321
-2.204,0.533,0.273,4.272,32.41,-65.979
-2.191,0.442,0.19,2.869,26.428,-84.717
-2.153,0.345,0.147,-2.991,14.893,-99.365
-2.108,0.25,0.181,-10.559,-0.732,-111.145
-2.063,0.154,0.294,-11.658,-15.076,-120.728
-2.013,0.082,0.443,-16.235,-18.921,-126.831
-1.94,0.029,0.564,-28.076,-10.864,-130.615
-1.842,-0.056,0.619,-36.865,-3.235,-136.047
-1.74,-0.209,0.651,-49.683,1.709,-137.085
-1.648,-0.378,0.712,-65.186,9.583,-126.648
-1.582,-0.422,0.711,-65.796,26.123,-107.727
-1.537,-0.327,0.61,-86.609,46.021,-91.98
-1.479,-0.229,0.487,-100.22,61.401,-83.984
-1.401,-0.198,0.357,-102.6,68.42,-81.116
-1.32,-0.216,0.244,-110.229,68.665,-75.562
-1.24,-0.234,0.158,-121.765,68.542,-63.171
-1.162,-0.226,0.077,-131.653,68.359,-49.011
-1.1,-0.219,0.011,-135.315,64.148,-39.429
-1.05,-0.23,-0.036,-130.31,57.678,-31.006
-1.003,-0.214,-0.086,-120.728,48.889,-20.203
-0.964,-0.141,-0.113,-111.877,41.565,-7.324
-0.932,-0.026,-0.111,-96.619,42.297,2.686
-0.902,0.102,-0.131,-86.487,49.133,5.615
-0.872,0.21,-0.203,-75.073,54.26,0.916
-0.847,0.287,-0.315,-62.195,53.284,-5.554
-0.817,0.353,-0.411,-54.626,43.518,-11.475
-0.78,0.421,-0.443,-45.593,31.311,-18.494
-0.746,0.474,-0.429,-33.875,23.804,-30.151
-0.71,0.486,-0.419,-12.024,20.691,-46.875
-0.668,0.447,-0.433,7.324,16.541,-67.627
-0.628,0.352,-0.467,22.034,7.874,-87.769
-0.605,0.221,-0.496,12.756,-4.15,-99.792
-0.567,0.089,-0.454,-13.245,-18.066,-103.699
-0.514,-0.016,-0.33,-23.926,-30.701,-102.783
-0.477,-0.093,-0.167,-27.649,-37.476,-99.06
-0.443,-0.173,-0.012,-37.781,-33.264,-93.262
-0.42,-0.264,0.091,-55.725,-21.24,-82.886
-0.408,-0.321,0.122,-73.547,-4.517,-65.43
-0.395,-0.305,0.072,-88.501,13.977,-43.03
-0.378,-0.25,-0.021,-101.257,27.71,-24.17
-0.362,-0.199,-0.102,-98.938,34.668,-9.705
-0.351,-0.129,-0.153,-95.642,34.851,-2.319
-0.342,-0.054,-0.161,-82.092,32.104,-5.127
-0.324,-0.02,-0.146,-60.669,24.78,-19.836
-0.309,-0.03,-0.142,-25.574,13.489,-37.781
-0.306,-0.071,-0.156,1.831,1.831,-47.729
-0.291,-0.083,-0.164,11.475,-8.484,-45.776
-0.253,-0.042,-0.131,6.165,-14.099,-37.231
-0.228,0.006,-0.043,10.742,-15.564,-28.687
-0.237,0.027,0.091,25.269,-17.7,-22.827
-0.264,0.032,0.25,34.241,-16.296,-18.311
-0.282,0.045,0.394,32.898,-3.845,-11.597
-0.287,0.083,0.458,33.325,16.785,-3.662
-0.284,0.15,0.414,32.227,37.72,-0.488
-0.275,0.205,0.297,33.813,49.683,-8.423
-0.253,0.202,0.151,35.706,48.34,-26.184
-0.224,0.137,0.031,18.677,36.194,-42.358
-0.192,0.043,-0.029,-16.052,21.973,-45.898
-0.156,-0.034,-0.036,-60.791,10.864,-37.781
-0.123,-0.069,0.013,-90.881,1.709,-29.358
-0.091,-0.081,0.118,-89.478,-4.7,-33.752
-0.068,-0.126,0.23,-51.575,-2.319,-48.828
-0.063,-0.21,0.269,-8.118,11.475,-59.265
-0.057,-0.287,0.205,18.005,25.635,-61.218
-0.038,-0.328,0.081,32.959,31.128,-58.411
-0.018,-0.337,-0.041,41.992,27.466,-54.932
0.007,-0.328,-0.137,47.913,18.921,-52.185
0.041,-0.315,-0.187,43.884,7.751,-51.025
0.076,-0.321,-0.177,38.635,-3.235,-50.537
0.111,-0.346,-0.144,41.382,-7.996,-48.889
0.132,-0.38,-0.151,50.354,-9.949,-44.128
0.122,-0.408,-0.205,56.274,-19.714,-35.706
0.104,-0.42,-0.251,56.213,-40.71,-24.231
0.095,-0.42,-0.248,44.983,-60.791,-12.085
0.093,-0.43,-0.219,31.494,-73.364,-1.953
0.086,-0.443,-0.208,21.545,-74.524,6.592
0.071,-0.427,-0.246,24.597,-72.815,16.602
0.058,-0.37,-0.31,24.048,-72.021,29.663
0.037,-0.296,-0.367,26.794,-77.209,43.945
0.005,-0.255,-0.382,39.429,-84.045,53.04
-0.052,-0.268,-0.354,59.631,-86.731,58.594
-0.144,-0.286,-0.33,80.383,-83.435,66.956
-0.215,-0.27,-0.321,97.168,-73.12,72.51
-0.264,-0.24,-0.31,115.417,-64.636,76.904
-0.324,-0.221,-0.27,132.507,-65.552,84.534
-0.388,-0.221,-0.187,142.761,-73.425,92.896
-0.451,-0.201,-0.067,137.329,-78.491,104.37
-0.551,-0.115,0.06,122.925,-74.402,120.422
-0.677,0.014,0.156,110.474,-60.974,134.888
-0.791,0.13,0.207,106.262,-40.771,138.977
-0.876,0.198,0.166,102.844,-15.381,130.981
-0.92,0.175,0.021,104.309,6.104,113.586
-0.958,0.04,-0.119,97.9,10.925,100.647
-1.015,-0.2,-0.148,81.604,2.502,108.032
-1.055,-0.411,-0.09,77.393,-9.766,143.982
-1.117,-0.391,0.013,67.627,-25.94,196.777
-1.259,-0.16,0.236,16.541,-44.373,236.145
-1.451,0.11,0.531,-15.015,-49.072,246.948
-1.627,0.306,0.732,-14.099,-30.64,245.361
-1.792,0.547,0.755,-29.846,6.287,243.835
-1.924,0.815,0.693,-38.33,25.574,215.942
-2.032,0.933,0.68,20.02,28.564,174.744
-2.144,0.884,0.691,74.585,28.015,132.751
-2.202,0.686,0.693,92.651,32.288,110.718
-2.206,0.482,0.704,106.384,52.917,105.225
-2.2,0.361,0.619,133.24,70.313,97.229
-2.193,0.293,0.482,122.864,68.176,86.426
-2.199,0.208,0.441,102.051,59.631,73.242
-2.212,0.115,0.411,66.284,52.002,72.754
-2.193,0.142,0.388,28.015,46.814,79.163
-2.19,0.308,0.426,16.113,47.668,75.073
-2.211,0.464,0.47,8.728,63.477,59.631
-2.194,0.53,0.428,-0.305,82.153,38.696
-2.168,0.51,0.28,-14.038,89.233,20.752
-2.128,0.458,0.124,-17.273,76.843,18.494
-2.018,0.461,0.037,-10.986,59.998,16.235
-1.881,0.453,-0.005,5.31,47.668,-1.282
-1.749,0.338,-0.062,18.616,39.917,-21.912
-2.238,0.318,-0.348,-39.429,-43.457,1.526
-2.346,0.383,-0.399,-44.617,-60.12,-5.981
-2.379,0.447,-0.467,-53.772,-81.177,-14.465
-2.346,0.542,-0.505,-64.026,-107.971,-23.376
-2.291,0.631,-0.432,-76.172,-135.01,-34.912
-2.21,0.64,-0.242,-91.187,-161.682,-52.856
-2.091,0.6,-0.02,-91.309,-180.664,-71.228
-1.949,0.558,0.207,-93.384,-190.247,-91.37
-1.816,0.481,0.495,-83.801,-199.829,-111.511
-1.708,0.362,0.856,-69.946,-202.332,-128.723
-1.59,0.195,1.227,-61.646,-185.486,-143.066
-1.456,-0.016,1.49,-62.866,-142.517,-147.888
-1.316,-0.204,1.538,-66.467,-84.29,-140.625
-1.179,-0.302,1.358,-73.181,-33.691,-127.869
-1.043,-0.325,1.099,-105.835,-1.831,-113.892
-0.904,-0.351,0.927,-125.61,17.212,-103.088
-0.811,-0.393,0.809,-121.033,36.438,-96.68
-0.762,-0.436,0.685,-110.229,51.453,-96.069
-0.711,-0.506,0.555,-89.478,61.523,-96.985
-0.668,-0.603,0.436,-67.2,64.819,-95.093
-0.644,-0.687,0.372,-37.659,59.753,-86.975
-0.64,-0.72,0.367,-5.432,48.523,-72.937
-0.633,-0.693,0.39,5.31,46.326,-58.533
-0.607,-0.641,0.386,7.324,58.411,-46.082
-0.586,-0.599,0.316,4.456,74.158,-32.715
-0.565,-0.584,0.193,2.075,81.421,-17.883
-0.526,-0.575,0.06,8.667,76.233,-4.883
-0.473,-0.523,-0.013,10.132,68.848,-1.038
-0.427,-0.455,-0.023,0.671,73.12,-8.118
-0.412,-0.397,-0.053,-10.437,83.069,-17.395
-0.407,-0.339,-0.133,-29.48,89.172,-23.193
-0.393,-0.317,-0.223,-50.415,85.022,-23.376
-0.357,-0.312,-0.255,-68.054,64.758,-14.526
-0.308,-0.272,-0.191,-89.478,40.833,-4.761
-0.262,-0.209,-0.062,-110.901,26.306,0.916
-0.212,-0.166,0.064,-120.667,26.733,4.333
-0.162,-0.141,0.126,-125.305,38.818,10.559
-0.103,-0.104,0.109,-122.681,51.941,17.7
-0.037,-0.066,0.052,-109.436,56.641,24.414
0.018,-0.028,-0.011,-91.98,53.04,29.236
0.074,0.013,-0.058,-84.167,43.518,28.687
0.115,0.048,-0.08,-80.261,31.616,25.696
0.13,0.104,-0.079,-76.782,13.916,19.592
0.144,0.171,-0.031,-58.777,-9.033,6.775
0.168,0.208,0.071,-28.015,-21.362,-9.399
0.182,0.205,0.162,6.714,-15.503,-19.226
0.17,0.195,0.174,33.447,-4.578,-21.79
0.163,0.212,0.137,42.847,-3.723,-22.156
0.16,0.236,0.142,41.077,-12.695,-23.376
0.153,0.226,0.211,37.109,-21.667,-24.475
0.155,0.187,0.288,28.687,-21.545,-21.667
0.162,0.159,0.313,18.494,-11.414,-15.259
0.171,0.154,0.256,9.338,-0.916,-12.634
0.18,0.144,0.157,4.517,0,-16.052
0.187,0.103,0.078,2.686,-6.714,-20.508
0.186,0.049,0.033,6.592,-14.099,-21.851
0.179,0.002,0.007,9.705,-20.874,-20.996
0.164,-0.036,-0.004,9.46,-27.344,-20.386
0.151,-0.07,0.003,8.728,-34.424,-20.386
0.11,-0.1,-0.009,19.531,-45.959,-22.095
0.086,-0.148,-0.023,37.17,-74.036,-24.78
0.094,-0.207,0.02,54.504,-90.942,-21.362
0.065,-0.239,0.108,67.444,-87.28,-15.747
0,-0.219,0.148,90.637,-71.716,-6.653
-0.075,-0.155,0.088,96.13,-56.58,0.61
-0.126,-0.109,0.004,85.876,-44.434,0.916
-0.178,-0.085,-0.06,84.961,-39.673,-0.488
-0.215,-0.028,-0.128,89.844,-43.579,-1.953
-0.213,0.047,-0.17,91.431,-52.673,-9.155
-0.233,0.031,-0.118,107.727,-67.261,-22.644
-0.311,-0.095,0.018,142.456,-84.839,-33.142
-0.409,-0.233,0.19,168.335,-95.764,-31.128
-0.488,-0.323,0.359,181.152,-92.224,-20.447
-0.556,-0.384,0.528,177.429,-78.979,-10.864
-0.624,-0.452,0.672,178.528,-57.373,-1.77
-0.669,-0.516,0.733,173.096,-27.283,10.01
-0.721,-0.548,0.718,156.311,4.822,26.855
-0.788,-0.51,0.661,148.56,37.354,49.194
-0.864,-0.371,0.549,143.311,66.833,65.857
-0.942,-0.219,0.395,137.817,86.426,78.369
-0.993,-0.138,0.287,125.61,90.149,89.966
-1.045,-0.139,0.297,99.915,78.857,97.473
-1.137,-0.226,0.44,62.073,57.495,102.966
-1.243,-0.311,0.655,26.611,37.781,111.511
-1.34,-0.263,0.814,12.39,34.363,128.113
-1.437,-0.122,0.882,-2.197,45.959,144.592
-1.492,-0.02,0.857,-5.859,67.322,144.775
-1.516,-0.016,0.698,14.648,92.163,133.911
-1.595,-0.129,0.509,28.32,109.375,135.437
-1.726,-0.213,0.386,-2.441,111.816,160.278
-1.847,-0.116,0.327,-34.668,87.219,194.58
-1.938,0.174,0.401,-54.016,58.35,209.534
-2.009,0.515,0.61,-23.743,45.471,175.903
-2.134,0.62,0.771,27.832,49.194,117.004
-2.257,0.469,0.763,47.668,51.147,86.731
-2.261,0.324,0.689,37.17,49.072,94.849
-2.186,0.329,0.643,12.329,60.791,104.187
-2.116,0.379,0.544,-5.737,81.299,90.759
-2.076,0.366,0.357,-10.803,85.571,70.251
-2.021,0.326,0.196,-11.78,72.571,51.147
-1.929,0.271,0.135,-5.615,56.458,29.114
-1.833,0.178,0.136,9.338,53.65,8.606
-1.754,0.08,0.097,19.226,58.35,-2.075
-1.689,0.004,-0.013,22.583,51.331,-4.15
-1.62,-0.03,-0.091,24.353,25.574,-1.465
-1.55,-0.016,-0.041,24.536,0.732,-2.747
-1.498,-0.004,0.087,30.212,-10.132,-7.996
-1.467,0.004,0.195,38.086,-8.728,-11.23
-1.439,0.034,0.234,41.443,-2.625,-11.108
-1.394,0.077,0.234,36.255,0.732,-12.268
-1.348,0.103,0.242,36.987,2.991,-17.151
-1.307,0.107,0.249,41.016,6.042,-21.057
-1.259,0.098,0.254,39.063,10.742,-23.071
-1.199,0.071,0.241,37.292,17.944,-25.085
-1.14,0.026,0.173,38.208,20.02,-26.062
-1.087,-0.015,0.082,34.973,11.78,-24.475
-1.039,-0.033,0.037,30.701,-1.343,-21.118
-1.012,-0.029,0.031,28.198,-15.259,-16.296
-1.002,0.015,0.06,23.926,-22.888,-10.925
-0.999,0.067,0.051,21.79,-26.062,-7.935
-1.418,1.223,0.481,-210.571,7.141,43.518
-1.275,1.343,0.586,-221.558,39.856,-2.38
-1.119,1.269,0.635,-167.542,75.5,-61.34
-0.973,1.017,0.552,-97.656,105.591,-123.84
-0.85,0.637,0.371,-52.856,124.329,-174.744
-0.756,0.228,0.17,-12.024,132.629,-195.435
-0.679,-0.072,-0.052,11.047,136.23,-187.988
-0.582,-0.214,-0.268,7.996,136.108,-169.617
-0.512,-0.276,-0.425,24.902,125.549,-156.311
-0.518,-0.323,-0.506,52.856,101.379,-149.536
-0.537,-0.37,-0.493,64.697,71.045,-146.667
-0.535,-0.439,-0.426,80.933,52.673,-145.325
-0.532,-0.528,-0.412,101.135,54.871,-142.639
-0.53,-0.634,-0.49,113.586,58.044,-138.306
-0.542,-0.735,-0.582,110.535,45.349,-128.662
-0.555,-0.783,-0.604,78.918,24.78,-111.694
-0.587,-0.786,-0.547,49.377,10.315,-93.567
-0.637,-0.781,-0.455,29.053,3.601,-79.773
-0.677,-0.769,-0.367,25.269,-1.099,-67.078
-0.71,-0.719,-0.326,19.836,-5.31,-54.626
-0.732,-0.649,-0.313,2.014,-9.46,-46.57
-0.752,-0.584,-0.31,-7.202,-13.672,-41.504
-0.76,-0.525,-0.311,-18.25,-17.517,-36.56
-0.736,-0.465,-0.27,-31.128,-22.461,-31.189
-0.692,-0.426,-0.18,-39.368,-27.893,-31.372
-0.637,-0.429,-0.095,-44.495,-26.367,-35.217
-0.57,-0.452,-0.086,-57.922,-18.066,-39.063
-0.494,-0.458,-0.167,-81.299,-9.216,-39.856
-0.407,-0.43,-0.279,-99.976,-9.46,-37.17
-0.318,-0.377,-0.356,-101.929,-21.912,-37.72
-0.242,-0.334,-0.353,-91.675,-41.382,-41.26
-0.184,-0.321,-0.268,-73.73,-55.908,-41.199
-0.145,-0.314,-0.148,-49.255,-58.899,-33.02
-0.114,-0.284,-0.06,-18.25,-52.612,-21.545
-0.077,-0.247,-0.024,8.423,-44.067,-11.414
-0.036,-0.234,0.01,33.325,-40.71,-0.977
-0.019,-0.238,0.083,53.65,-43.884,12.695
-0.039,-0.226,0.201,63.721,-48.95,27.71
-0.065,-0.15,0.326,61.34,-49.683,37.048
-0.067,-0.013,0.402,43.396,-41.016,37.964
-0.057,0.114,0.384,15.015,-29.053,33.813
-0.037,0.19,0.268,-22.522,-22.766,33.569
-0.003,0.235,0.113,-67.688,-28.87,40.771
0.043,0.28,0.028,-108.704,-44.861,48.645
0.057,0.329,0.067,-128.479,-59.753,49.5
0.065,0.386,0.219,-115.173,-67.322,31.494
0.087,0.401,0.389,-60.913,-57.861,0.061
0.09,0.306,0.456,-4.395,-36.682,-29.541
0.094,0.149,0.387,35.583,-17.639,-44.312
0.107,0.036,0.269,53.223,-7.08,-43.884
0.123,0,0.183,64.514,-4.272,-38.086
0.136,-0.011,0.13,72.632,-8.118,-34.912
0.141,-0.043,0.101,82.336,-14.893,-33.875
0.124,-0.101,0.076,90.027,-22.034,-31.372
0.108,-0.166,0.03,91.736,-25.94,-26.001
0.1,-0.206,-0.044,88.623,-26.489,-19.653
0.079,-0.221,-0.121,83.191,-28.32,-13.062
0.042,-0.242,-0.198,77.087,-36.987,-5.676
-0.002,-0.273,-0.247,67.749,-53.284,4.395
-0.045,-0.265,-0.219,55.298,-70.679,15.381
-0.116,-0.2,-0.113,44.983,-80.811,21.362
-0.2,-0.129,0.021,42.664,-80.872,20.142
-0.272,-0.106,0.129,46.997,-72.571,11.536
-0.325,-0.153,0.167,57.861,-56.335,-0.488
-0.358,-0.28,0.139,69.58,-38.33,-12.268
-0.42,-0.457,0.097,91.064,-26.245,-15.137
-0.511,-0.595,0.06,111.45,-20.935,-1.709
-0.586,-0.626,0.056,112.122,-14.16,24.536
-0.666,-0.548,0.077,117.188,-2.686,57.068
-0.766,-0.413,0.08,120.789,7.69,85.266
-0.884,-0.29,0.087,110.657,11.597,101.563
-1.006,-0.239,0.125,95.337,11.78,103.943
-1.081,-0.286,0.158,69.275,15.564,96.924
-1.131,-0.366,0.177,46.021,17.029,90.271
-1.193,-0.407,0.217,28.931,21.362,95.947
-1.263,-0.461,0.244,26.245,44.006,122.314
-1.332,-0.449,0.16,13.733,71.96,158.325
-1.407,-0.281,-0.025,-0.061,73.547,179.565
-1.523,-0.056,-0.148,-8.911,48.401,191.528
-1.689,0.165,-0.135,-6.531,13.367,194.702
-1.804,0.309,0.001,-8.545,-9.277,179.81
-1.88,0.348,0.132,4.395,-11.597,149.597
-1.971,0.244,0.25,24.414,-22.339,102.295
-2.06,0.014,0.424,58.899,-33.264,77.148
-2.141,-0.159,0.55,65.735,-32.776,80.566
-2.184,-0.183,0.598,55.664,-21.667,97.656
-2.232,-0.037,0.587,35.645,-6.653,116.943
-2.252,0.208,0.552,15.381,2.686,128.601
-2.199,0.464,0.559,21.301,17.212,119.263
-2.13,0.592,0.503,54.81,35.645,74.341
-2.069,0.49,0.333,83.862,41.443,34.18
-2.002,0.297,0.184,92.957,35.095,13.428
-1.912,0.115,0.113,78.003,21.423,4.089
-1.806,-0.017,0.13,52.917,9.338,1.343
-1.722,-0.074,0.207,31.006,5.31,-6.226
-1.668,-0.113,0.307,13.55,11.902,-11.414
-1.625,-0.138,0.369,2.563,27.039,-7.141
-1.573,-0.097,0.334,2.991,34.424,-0.671
-1.509,-0.028,0.27,5.737,29.846,0.366
-1.437,0.027,0.239,10.498,21.912,-4.089
-1.379,0.056,0.232,7.08,20.142,-14.954
-1.347,0.038,0.215,-2.014,23.865,-21.179
-1.302,0.02,0.157,-6.226,27.1,-18.86
-1.239,0.005,0.095,-8.057,26.001,-20.935
-1.192,-0.056,0.057,-10.315,21.118,-24.78
-1.155,-0.13,0.027,-13.062,14.832,-22.949
-1.114,-0.158,0.001,-20.813,7.385,-17.334
-1.072,-0.163,0.01,-25.757,-2.93,-15.137
-1.037,-0.191,0.063,-29.846,-8.789,-13.306
-1.02,-0.213,0.109,-33.325,-9.338,-7.69
-1.014,-0.177,0.12,-35.522,-8.85,0.488
-1.029,-0.065,0.132,-39.307,-7.996,7.935
-1.052,0.074,0.159,-36.804,-5.432,7.935
-1.05,0.145,0.179,-27.527,0,-4.517
-1.037,0.112,0.166,-10.193,7.874,-16.907
-1.019,0.037,0.114,-4.272,13.855,-20.02
-0.998,-0.017,0.071,-8.423,13.245,-18.188
-0.98,-0.057,0.07,-7.263,7.996,-17.517
-0.96,-0.11,0.089,-2.075,6.165,-17.334
-0.944,-0.158,0.094,-1.343,8.789,-13
